id_sujet,serie,trial,item,correct,key_press,correct_response,rt,time_elapsed,test_part
3,1,1,1,1.0,5,5,587.0,12010,trial_1_1_1
3,1,1,2,1.0,3,3,159.0,12170,trial_1_1_2
3,1,1,3,1.0,1,1,61.0,12233,trial_1_1_3
3,1,2,1,1.0,4,4,2136.0,19948,trial_1_2_1
3,1,2,2,1.0,8,8,307.0,20256,trial_1_2_2
3,1,2,3,1.0,2,2,628.0,20884,trial_1_2_3
3,1,2,4,1.0,9,9,170.0,21057,trial_1_2_4
3,1,3,1,1.0,5,5,1725.0,29376,trial_1_3_1
3,1,3,2,1.0,8,8,346.0,29723,trial_1_3_2
3,1,3,3,1.0,1,1,727.0,30452,trial_1_3_3
3,1,3,4,1.0,7,7,373.0,30826,trial_1_3_4
3,1,3,5,1.0,2,2,214.0,31041,trial_1_3_5
3,1,4,1,1.0,5,5,3234.0,41905,trial_1_4_1
3,1,4,2,1.0,6,6,81.0,41987,trial_1_4_2
3,1,4,3,1.0,4,4,889.0,42876,trial_1_4_3
3,1,4,4,1.0,3,3,320.0,43196,trial_1_4_4
3,1,4,5,1.0,2,2,378.0,43575,trial_1_4_5
3,1,4,6,1.0,9,9,292.0,43868,trial_1_4_6
3,1,5,1,,1,2,58777.0,111278,trial_1_5_1
3,1,5,2,,2,8,105.0,111386,trial_1_5_2
3,1,5,3,,3,9,54.0,111442,trial_1_5_3
3,1,5,4,,4,7,65.0,111509,trial_1_5_4
3,1,5,5,,5,4,61.0,111572,trial_1_5_5
3,1,5,6,,6,5,55.0,111629,trial_1_5_6
3,1,5,7,,7,3,71.0,111701,trial_1_5_7
3,1,6,1,1.0,1,1,1157.0,121469,trial_1_6_1
3,1,6,2,1.0,8,8,424.0,121893,trial_1_6_2
3,1,6,3,1.0,6,6,326.0,122220,trial_1_6_3
3,1,6,4,1.0,7,7,311.0,122533,trial_1_6_4
3,1,6,5,1.0,9,9,387.0,122922,trial_1_6_5
3,1,6,6,1.0,3,3,517.0,123440,trial_1_6_6
3,1,6,7,1.0,4,4,188.0,123630,trial_1_6_7
3,1,7,1,1.0,5,5,1548.0,132789,trial_1_7_1
3,1,7,2,1.0,2,2,346.0,133137,trial_1_7_2
3,1,7,3,1.0,3,3,370.0,133508,trial_1_7_3
3,1,7,4,1.0,9,9,354.0,133863,trial_1_7_4
3,1,7,5,1.0,4,4,509.0,134372,trial_1_7_5
3,1,7,6,1.0,1,1,112.0,134485,trial_1_7_6
3,1,8,1,1.0,5,5,1650.0,144760,trial_1_8_1
3,1,8,2,1.0,3,3,399.0,145159,trial_1_8_2
3,1,8,3,1.0,9,9,355.0,145516,trial_1_8_3
3,1,8,4,,4,2,370.0,145886,trial_1_8_4
3,1,8,5,,6,4,331.0,146217,trial_1_8_5
3,1,8,6,,7,6,334.0,146553,trial_1_8_6
3,1,8,7,,2,7,262.0,146815,trial_1_8_7
3,1,9,1,1.0,3,3,2083.0,157524,trial_1_9_1
3,1,9,2,1.0,7,7,543.0,158067,trial_1_9_2
3,1,9,3,1.0,9,9,488.0,158557,trial_1_9_3
3,1,9,4,1.0,4,4,473.0,159032,trial_1_9_4
3,1,9,5,1.0,1,1,453.0,159485,trial_1_9_5
3,1,9,6,1.0,8,8,538.0,160025,trial_1_9_6
3,1,9,7,1.0,2,2,446.0,160472,trial_1_9_7
3,1,10,1,1.0,7,7,1643.0,171762,trial_1_10_1
3,1,10,2,1.0,8,8,392.0,172155,trial_1_10_2
3,1,10,3,,3,4,425.0,172580,trial_1_10_3
3,1,10,4,,4,3,399.0,172980,trial_1_10_4
3,1,10,5,,5,1,722.0,173702,trial_1_10_5
3,1,10,6,,1,5,644.0,174347,trial_1_10_6
3,1,10,7,1.0,9,9,491.0,174839,trial_1_10_7
3,1,10,8,1.0,6,6,619.0,175459,trial_1_10_8
3,1,11,1,1.0,8,8,1627.0,186745,trial_1_11_1
3,1,11,2,1.0,4,4,436.0,187184,trial_1_11_2
3,1,11,3,1.0,6,6,401.0,187585,trial_1_11_3
3,1,11,4,1.0,2,2,490.0,188076,trial_1_11_4
3,1,11,5,1.0,5,5,753.0,188830,trial_1_11_5
3,1,11,6,1.0,7,7,240.0,189071,trial_1_11_6
3,1,11,7,1.0,9,9,420.0,189492,trial_1_11_7
3,1,11,8,1.0,1,1,308.0,189802,trial_1_11_8
3,1,12,1,1.0,4,4,1561.0,202019,trial_1_12_1
3,1,12,2,1.0,2,2,313.0,202333,trial_1_12_2
3,1,12,3,,8,6,378.0,202711,trial_1_12_3
3,1,12,4,,9,1,1104.0,203817,trial_1_12_4
3,1,12,5,,6,9,351.0,204168,trial_1_12_5
3,1,12,6,1.0,3,3,1928.0,206098,trial_1_12_6
3,1,12,7,,7,8,287.0,206387,trial_1_12_7
3,1,12,8,1.0,5,5,968.0,207355,trial_1_12_8
3,1,12,9,,1,7,1123.0,208479,trial_1_12_9
3,1,13,1,1.0,8,8,4887.0,223985,trial_1_13_1
3,1,13,2,1.0,2,2,504.0,224491,trial_1_13_2
3,1,13,3,1.0,4,4,475.0,224967,trial_1_13_3
3,1,13,4,,5,1,473.0,225441,trial_1_13_4
3,1,13,5,1.0,3,3,726.0,226168,trial_1_13_5
3,1,13,6,,1,5,533.0,226702,trial_1_13_6
3,1,13,7,1.0,9,9,411.0,227114,trial_1_13_7
3,1,13,8,1.0,6,6,326.0,227440,trial_1_13_8
3,1,13,9,1.0,7,7,311.0,227752,trial_1_13_9
3,1,14,1,1.0,3,3,1198.0,238595,trial_1_14_1
3,1,14,2,1.0,6,6,411.0,239009,trial_1_14_2
3,1,14,3,1.0,7,7,392.0,239402,trial_1_14_3
3,1,14,4,1.0,5,5,366.0,239768,trial_1_14_4
3,1,14,5,1.0,8,8,469.0,240238,trial_1_14_5
3,1,14,6,1.0,2,2,455.0,240694,trial_1_14_6
3,1,14,7,1.0,4,4,543.0,241238,trial_1_14_7
3,1,14,8,1.0,9,9,338.0,241577,trial_1_14_8
3,2,1,1,1.0,7,7,405.0,278413,trial_2_1_1
3,2,1,2,1.0,9,9,446.0,278859,trial_2_1_2
3,2,1,3,1.0,5,5,305.0,279164,trial_2_1_3
3,2,2,1,1.0,9,9,850.0,285570,trial_2_2_1
3,2,2,2,1.0,4,4,830.0,286401,trial_2_2_2
3,2,2,3,1.0,7,7,435.0,286837,trial_2_2_3
3,2,2,4,1.0,6,6,114.0,286952,trial_2_2_4
3,2,3,1,1.0,7,7,605.0,294142,trial_2_3_1
3,2,3,2,1.0,9,9,600.0,294743,trial_2_3_2
3,2,3,3,1.0,3,3,578.0,295322,trial_2_3_3
3,2,3,4,1.0,6,6,468.0,295790,trial_2_3_4
3,2,3,5,1.0,5,5,431.0,296224,trial_2_3_5
3,2,4,1,1.0,8,8,1674.0,305483,trial_2_4_1
3,2,4,2,1.0,7,7,428.0,305913,trial_2_4_2
3,2,4,3,1.0,5,5,633.0,306547,trial_2_4_3
3,2,4,4,1.0,2,2,451.0,306999,trial_2_4_4
3,2,4,5,1.0,1,1,562.0,307561,trial_2_4_5
3,2,4,6,1.0,6,6,396.0,307958,trial_2_4_6
3,2,5,1,1.0,3,3,1776.0,318364,trial_2_5_1
3,2,5,2,1.0,2,2,369.0,318734,trial_2_5_2
3,2,5,3,,5,7,501.0,319236,trial_2_5_3
3,2,5,4,1.0,4,4,1015.0,320253,trial_2_5_4
3,2,5,5,1.0,1,1,439.0,320694,trial_2_5_5
3,2,5,6,,7,5,409.0,321104,trial_2_5_6
3,2,5,7,1.0,8,8,9683.0,330788,trial_2_5_7
3,2,6,1,1.0,6,6,1860.0,341258,trial_2_6_1
3,2,6,2,1.0,2,2,543.0,341802,trial_2_6_2
3,2,6,3,1.0,9,9,372.0,342174,trial_2_6_3
3,2,6,4,1.0,7,7,313.0,342488,trial_2_6_4
3,2,6,5,1.0,5,5,316.0,342804,trial_2_6_5
3,2,6,6,1.0,4,4,338.0,343143,trial_2_6_6
3,2,6,7,1.0,3,3,390.0,343533,trial_2_6_7
3,2,7,1,1.0,1,1,1412.0,352560,trial_2_7_1
3,2,7,2,1.0,9,9,401.0,352962,trial_2_7_2
3,2,7,3,1.0,8,8,289.0,353251,trial_2_7_3
3,2,7,4,1.0,7,7,357.0,353608,trial_2_7_4
3,2,7,5,1.0,4,4,538.0,354147,trial_2_7_5
3,2,7,6,1.0,5,5,500.0,354648,trial_2_7_6
3,2,8,1,1.0,7,7,2141.0,365409,trial_2_8_1
3,2,8,2,1.0,4,4,392.0,365803,trial_2_8_2
3,2,8,3,,2,5,352.0,366155,trial_2_8_3
3,2,8,4,,6,2,469.0,366624,trial_2_8_4
3,2,8,5,,9,6,1766.0,368390,trial_2_8_5
3,2,8,6,,8,9,261.0,368652,trial_2_8_6
3,2,8,7,,4,8,1657.0,370311,trial_2_8_7
3,2,9,1,1.0,7,7,1626.0,380553,trial_2_9_1
3,2,9,2,1.0,1,1,529.0,381083,trial_2_9_2
3,2,9,3,1.0,4,4,396.0,381479,trial_2_9_3
3,2,9,4,1.0,5,5,442.0,381922,trial_2_9_4
3,2,9,5,1.0,3,3,882.0,382806,trial_2_9_5
3,2,9,6,1.0,8,8,503.0,383309,trial_2_9_6
3,2,9,7,1.0,6,6,284.0,383593,trial_2_9_7
3,2,10,1,1.0,9,9,1897.0,395113,trial_2_10_1
3,2,10,2,1.0,6,6,411.0,395527,trial_2_10_2
3,2,10,3,1.0,5,5,367.0,395894,trial_2_10_3
3,2,10,4,1.0,3,3,452.0,396347,trial_2_10_4
3,2,10,5,,8,2,977.0,397325,trial_2_10_5
3,2,10,6,,6,8,436.0,397762,trial_2_10_6
3,2,10,7,,1,7,388.0,398150,trial_2_10_7
3,2,10,8,,7,1,262.0,398412,trial_2_10_8
3,2,11,1,,9,1,1305.0,409372,trial_2_11_1
3,2,11,2,,6,7,559.0,409931,trial_2_11_2
3,2,11,3,1.0,5,5,513.0,410445,trial_2_11_3
3,2,11,4,,1,6,642.0,411088,trial_2_11_4
3,2,11,5,,3,2,327.0,411415,trial_2_11_5
3,2,11,6,,4,3,274.0,411690,trial_2_11_6
3,2,11,7,,6,4,589.0,412280,trial_2_11_7
3,2,11,8,,7,8,274.0,412554,trial_2_11_8
3,2,12,1,1.0,3,3,1702.0,424898,trial_2_12_1
3,2,12,2,,6,7,244.0,425143,trial_2_12_2
3,2,12,3,1.0,8,8,1150.0,426292,trial_2_12_3
3,2,12,4,,4,6,385.0,426678,trial_2_12_4
3,2,12,5,,2,4,648.0,427327,trial_2_12_5
3,2,12,6,,5,2,298.0,427626,trial_2_12_6
3,2,12,7,,1,5,252.0,427879,trial_2_12_7
3,2,12,8,,9,1,290.0,428169,trial_2_12_8
3,2,12,9,,5,9,1816.0,429985,trial_2_12_9
3,2,13,1,1.0,4,4,1571.0,442223,trial_2_13_1
3,2,13,2,1.0,3,3,154.0,442377,trial_2_13_2
3,2,13,3,1.0,9,9,848.0,443226,trial_2_13_3
3,2,13,4,,5,7,385.0,443613,trial_2_13_4
3,2,13,5,1.0,1,1,544.0,444160,trial_2_13_5
3,2,13,6,,7,5,787.0,444947,trial_2_13_6
3,2,13,7,1.0,2,2,424.0,445371,trial_2_13_7
3,2,13,8,1.0,8,8,382.0,445754,trial_2_13_8
3,2,13,9,1.0,6,6,289.0,446043,trial_2_13_9
3,2,14,1,1.0,5,5,1485.0,457133,trial_2_14_1
3,2,14,2,1.0,6,6,128.0,457263,trial_2_14_2
3,2,14,3,1.0,8,8,628.0,457891,trial_2_14_3
3,2,14,4,1.0,2,2,439.0,458333,trial_2_14_4
3,2,14,5,1.0,3,3,486.0,458819,trial_2_14_5
3,2,14,6,1.0,7,7,482.0,459303,trial_2_14_6
3,2,14,7,1.0,9,9,393.0,459696,trial_2_14_7
3,2,14,8,1.0,1,1,274.0,459971,trial_2_14_8
3,3,1,1,,9,2,77079.0,564494,trial_3_1_1
3,3,1,2,,8,3,159.0,564654,trial_3_1_2
3,3,1,3,,7,1,152.0,564808,trial_3_1_3
3,3,2,1,1.0,1,1,706.0,571091,trial_3_2_1
3,3,2,2,,4,3,277.0,571368,trial_3_2_2
3,3,2,3,1.0,6,6,254.0,571623,trial_3_2_3
3,3,2,4,1.0,8,8,173.0,571797,trial_3_2_4
3,3,3,1,1.0,3,3,1397.0,579802,trial_3_3_1
3,3,3,2,1.0,5,5,310.0,580113,trial_3_3_2
3,3,3,3,1.0,6,6,364.0,580479,trial_3_3_3
3,3,3,4,1.0,2,2,310.0,580789,trial_3_3_4
3,3,3,5,1.0,8,8,351.0,581141,trial_3_3_5
3,3,4,1,1.0,8,8,1160.0,589886,trial_3_4_1
3,3,4,2,1.0,6,6,156.0,590042,trial_3_4_2
3,3,4,3,1.0,3,3,582.0,590626,trial_3_4_3
3,3,4,4,1.0,5,5,291.0,590918,trial_3_4_4
3,3,4,5,1.0,4,4,270.0,591189,trial_3_4_5
3,3,4,6,1.0,1,1,259.0,591449,trial_3_4_6
3,3,5,1,1.0,9,9,1314.0,601388,trial_3_5_1
3,3,5,2,1.0,8,8,266.0,601655,trial_3_5_2
3,3,5,3,1.0,7,7,302.0,601959,trial_3_5_3
3,3,5,4,1.0,2,2,434.0,602394,trial_3_5_4
3,3,5,5,1.0,6,6,419.0,602813,trial_3_5_5
3,3,5,6,1.0,1,1,361.0,603175,trial_3_5_6
3,3,5,7,1.0,5,5,306.0,603483,trial_3_5_7
3,3,6,1,1.0,4,4,1107.0,613240,trial_3_6_1
3,3,6,2,1.0,1,1,110.0,613353,trial_3_6_2
3,3,6,3,1.0,7,7,734.0,614089,trial_3_6_3
3,3,6,4,1.0,6,6,535.0,614626,trial_3_6_4
3,3,6,5,1.0,2,2,528.0,615154,trial_3_6_5
3,3,6,6,1.0,9,9,616.0,615771,trial_3_6_6
3,3,6,7,1.0,3,3,334.0,616105,trial_3_6_7
3,3,7,1,1.0,2,2,980.0,624684,trial_3_7_1
3,3,7,2,1.0,1,1,248.0,624933,trial_3_7_2
3,3,7,3,1.0,6,6,283.0,625216,trial_3_7_3
3,3,7,4,1.0,3,3,349.0,625566,trial_3_7_4
3,3,7,5,1.0,7,7,407.0,625973,trial_3_7_5
3,3,7,6,1.0,8,8,214.0,626189,trial_3_7_6
3,3,8,1,,3,5,3760.0,638584,trial_3_8_1
3,3,8,2,,5,3,294.0,638879,trial_3_8_2
3,3,8,3,1.0,1,1,302.0,639181,trial_3_8_3
3,3,8,4,1.0,6,6,727.0,639910,trial_3_8_4
3,3,8,5,1.0,2,2,418.0,640330,trial_3_8_5
3,3,8,6,1.0,7,7,379.0,640710,trial_3_8_6
3,3,8,7,1.0,8,8,324.0,641035,trial_3_8_7
3,3,9,1,1.0,6,6,1973.0,651617,trial_3_9_1
3,3,9,2,1.0,9,9,239.0,651858,trial_3_9_2
3,3,9,3,1.0,2,2,774.0,652633,trial_3_9_3
3,3,9,4,1.0,5,5,380.0,653013,trial_3_9_4
3,3,9,5,1.0,8,8,493.0,653508,trial_3_9_5
3,3,9,6,1.0,7,7,420.0,653928,trial_3_9_6
3,3,9,7,1.0,3,3,395.0,654323,trial_3_9_7
3,3,10,1,1.0,8,8,2410.0,666404,trial_3_10_1
3,3,10,2,1.0,9,9,235.0,666640,trial_3_10_2
3,3,10,3,1.0,2,2,915.0,667555,trial_3_10_3
3,3,10,4,1.0,5,5,374.0,667930,trial_3_10_4
3,3,10,5,1.0,6,6,708.0,668638,trial_3_10_5
3,3,10,6,1.0,3,3,573.0,669213,trial_3_10_6
3,3,10,7,1.0,1,1,432.0,669646,trial_3_10_7
3,3,10,8,,5,7,338.0,669985,trial_3_10_8
3,3,11,1,1.0,8,8,1223.0,680806,trial_3_11_1
3,3,11,2,1.0,5,5,591.0,681397,trial_3_11_2
3,3,11,3,1.0,4,4,878.0,682276,trial_3_11_3
3,3,11,4,1.0,2,2,753.0,683030,trial_3_11_4
3,3,11,5,1.0,6,6,667.0,683698,trial_3_11_5
3,3,11,6,1.0,9,9,571.0,684271,trial_3_11_6
3,3,11,7,1.0,1,1,373.0,684644,trial_3_11_7
3,3,11,8,1.0,3,3,304.0,684949,trial_3_11_8
3,3,12,1,1.0,8,8,3783.0,699366,trial_3_12_1
3,3,12,2,1.0,1,1,414.0,699781,trial_3_12_2
3,3,12,3,1.0,3,3,1071.0,700853,trial_3_12_3
3,3,12,4,1.0,9,9,488.0,701343,trial_3_12_4
3,3,12,5,,7,5,803.0,702148,trial_3_12_5
3,3,12,6,,5,7,509.0,702659,trial_3_12_6
3,3,12,7,1.0,6,6,699.0,703359,trial_3_12_7
3,3,12,8,1.0,4,4,555.0,703915,trial_3_12_8
3,3,12,9,1.0,2,2,596.0,704512,trial_3_12_9
3,3,13,1,1.0,1,1,1700.0,716873,trial_3_13_1
3,3,13,2,1.0,2,2,429.0,717302,trial_3_13_2
3,3,13,3,1.0,8,8,1112.0,718415,trial_3_13_3
3,3,13,4,1.0,7,7,651.0,719067,trial_3_13_4
3,3,13,5,1.0,3,3,673.0,719742,trial_3_13_5
3,3,13,6,1.0,9,9,684.0,720426,trial_3_13_6
3,3,13,7,,6,5,3372.0,723798,trial_3_13_7
3,3,13,8,,5,6,269.0,724068,trial_3_13_8
3,3,13,9,1.0,4,4,293.0,724362,trial_3_13_9
3,3,14,1,,5,8,5790.0,739803,trial_3_14_1
3,3,14,2,,8,4,349.0,740153,trial_3_14_2
3,3,14,3,1.0,7,7,958.0,741113,trial_3_14_3
3,3,14,4,1.0,6,6,412.0,741526,trial_3_14_4
3,3,14,5,1.0,1,1,502.0,742028,trial_3_14_5
3,3,14,6,1.0,3,3,414.0,742444,trial_3_14_6
3,3,14,7,1.0,2,2,497.0,742941,trial_3_14_7
3,3,14,8,1.0,9,9,319.0,743261,trial_3_14_8
3,4,1,1,,1,8,25333.0,802507,trial_4_1_1
3,4,1,2,,2,4,100.0,802609,trial_4_1_2
3,4,1,3,,3,5,331.0,802941,trial_4_1_3
3,4,2,1,1.0,4,4,1020.0,809543,trial_4_2_1
3,4,2,2,1.0,1,1,344.0,809887,trial_4_2_2
3,4,2,3,1.0,3,3,213.0,810103,trial_4_2_3
3,4,2,4,1.0,9,9,238.0,810341,trial_4_2_4
3,4,3,1,1.0,6,6,1366.0,818277,trial_4_3_1
3,4,3,2,1.0,4,4,363.0,818641,trial_4_3_2
3,4,3,3,1.0,7,7,445.0,819087,trial_4_3_3
3,4,3,4,1.0,3,3,402.0,819490,trial_4_3_4
3,4,3,5,1.0,2,2,293.0,819785,trial_4_3_5
3,4,4,1,1.0,2,2,1849.0,829261,trial_4_4_1
3,4,4,2,,7,5,375.0,829636,trial_4_4_2
3,4,4,3,1.0,8,8,376.0,830014,trial_4_4_3
3,4,4,4,,5,7,559.0,830574,trial_4_4_4
3,4,4,5,1.0,1,1,292.0,830867,trial_4_4_5
3,4,4,6,1.0,9,9,296.0,831164,trial_4_4_6
3,4,5,1,1.0,5,5,1467.0,841269,trial_4_5_1
3,4,5,2,1.0,6,6,283.0,841553,trial_4_5_2
3,4,5,3,,7,9,477.0,842031,trial_4_5_3
3,4,5,4,,9,7,394.0,842428,trial_4_5_4
3,4,5,5,,1,4,1670.0,844098,trial_4_5_5
3,4,5,6,,2,1,282.0,844380,trial_4_5_6
3,4,5,7,,8,2,493.0,844875,trial_4_5_7
3,4,6,1,1.0,9,9,1337.0,854838,trial_4_6_1
3,4,6,2,1.0,6,6,451.0,855290,trial_4_6_2
3,4,6,3,,5,7,379.0,855669,trial_4_6_3
3,4,6,4,1.0,4,4,466.0,856136,trial_4_6_4
3,4,6,5,1.0,1,1,397.0,856534,trial_4_6_5
3,4,6,6,,7,5,1115.0,857651,trial_4_6_6
3,4,6,7,1.0,8,8,324.0,857976,trial_4_6_7
3,4,7,1,1.0,2,2,1524.0,867105,trial_4_7_1
3,4,7,2,1.0,5,5,349.0,867454,trial_4_7_2
3,4,7,3,1.0,9,9,528.0,867983,trial_4_7_3
3,4,7,4,1.0,4,4,472.0,868455,trial_4_7_4
3,4,7,5,1.0,8,8,483.0,868938,trial_4_7_5
3,4,7,6,1.0,3,3,410.0,869349,trial_4_7_6
3,4,8,1,1.0,4,4,1460.0,879442,trial_4_8_1
3,4,8,2,1.0,9,9,363.0,879807,trial_4_8_2
3,4,8,3,1.0,2,2,434.0,880242,trial_4_8_3
3,4,8,4,1.0,3,3,388.0,880631,trial_4_8_4
3,4,8,5,1.0,7,7,492.0,881123,trial_4_8_5
3,4,8,6,1.0,8,8,274.0,881399,trial_4_8_6
3,4,8,7,1.0,1,1,280.0,881680,trial_4_8_7
3,4,9,1,1.0,2,2,1060.0,891360,trial_4_9_1
3,4,9,2,1.0,9,9,395.0,891756,trial_4_9_2
3,4,9,3,1.0,8,8,303.0,892060,trial_4_9_3
3,4,9,4,1.0,7,7,375.0,892437,trial_4_9_4
3,4,9,5,1.0,4,4,411.0,892850,trial_4_9_5
3,4,9,6,1.0,5,5,391.0,893241,trial_4_9_6
3,4,9,7,1.0,3,3,382.0,893624,trial_4_9_7
3,4,10,1,1.0,8,8,1640.0,904890,trial_4_10_1
3,4,10,2,1.0,7,7,332.0,905223,trial_4_10_2
3,4,10,3,,2,3,550.0,905774,trial_4_10_3
3,4,10,4,,3,2,380.0,906156,trial_4_10_4
3,4,10,5,1.0,9,9,474.0,906632,trial_4_10_5
3,4,10,6,1.0,6,6,676.0,907309,trial_4_10_6
3,4,10,7,1.0,5,5,598.0,907909,trial_4_10_7
3,4,10,8,1.0,1,1,315.0,908224,trial_4_10_8
3,4,11,1,1.0,3,3,1662.0,919522,trial_4_11_1
3,4,11,2,,5,1,377.0,919900,trial_4_11_2
3,4,11,3,1.0,4,4,342.0,920243,trial_4_11_3
3,4,11,4,,1,5,744.0,920988,trial_4_11_4
3,4,11,5,1.0,8,8,549.0,921538,trial_4_11_5
3,4,11,6,,7,2,1249.0,922788,trial_4_11_6
3,4,11,7,,6,7,457.0,923247,trial_4_11_7
3,4,11,8,,2,6,556.0,923804,trial_4_11_8
3,4,12,1,1.0,1,1,1412.0,935862,trial_4_12_1
3,4,12,2,1.0,9,9,264.0,936127,trial_4_12_2
3,4,12,3,1.0,7,7,507.0,936636,trial_4_12_3
3,4,12,4,1.0,4,4,513.0,937150,trial_4_12_4
3,4,12,5,,5,6,877.0,938028,trial_4_12_5
3,4,12,6,,6,5,1090.0,939118,trial_4_12_6
3,4,12,7,,7,8,1749.0,940869,trial_4_12_7
3,4,12,8,,8,2,251.0,941122,trial_4_12_8
3,4,12,9,,9,3,849.0,941972,trial_4_12_9
3,4,13,1,,2,3,870.0,953501,trial_4_13_1
3,4,13,2,,3,8,81.0,953583,trial_4_13_2
3,4,13,3,,4,9,52.0,953636,trial_4_13_3
3,4,13,4,,5,2,44.0,953682,trial_4_13_4
3,4,13,5,,6,7,40.0,953724,trial_4_13_5
3,4,13,6,,7,1,42.0,953766,trial_4_13_6
3,4,13,7,,8,5,42.0,953809,trial_4_13_7
3,4,13,8,,9,4,42.0,953854,trial_4_13_8
3,4,13,9,,9,6,1080.0,954935,trial_4_13_9
3,4,14,1,,9,3,1937.0,966536,trial_4_14_1
3,4,14,2,,8,9,73.0,966612,trial_4_14_2
3,4,14,3,,7,1,37.0,966649,trial_4_14_3
3,4,14,4,,6,8,27.0,966677,trial_4_14_4
3,4,14,5,,5,4,26.0,966702,trial_4_14_5
3,4,14,6,,4,6,26.0,966728,trial_4_14_6
3,4,14,7,,3,7,25.0,966754,trial_4_14_7
3,4,14,8,,2,5,26.0,966781,trial_4_14_8
5,1,1,1,1.0,5,5,2086.97,9493,trial_1_1_1
5,1,1,2,1.0,7,7,1037.28,10534,trial_1_1_2
5,1,1,3,1.0,1,1,229.12,10765,trial_1_1_3
5,1,2,1,1.0,6,6,1130.93,17418,trial_1_2_1
5,1,2,2,1.0,7,7,420.15,17840,trial_1_2_2
5,1,2,3,1.0,2,2,178.3,18021,trial_1_2_3
5,1,2,4,1.0,1,1,220.365,18243,trial_1_2_4
5,1,3,1,1.0,3,3,2035.91,26805,trial_1_3_1
5,1,3,2,1.0,8,8,311.015,27118,trial_1_3_2
5,1,3,3,1.0,1,1,549.585,27669,trial_1_3_3
5,1,3,4,1.0,9,9,503.22,28175,trial_1_3_4
5,1,3,5,1.0,5,5,262.74,28439,trial_1_3_5
5,1,4,1,,5,6,1221.18,37185,trial_1_4_1
5,1,4,2,1.0,9,9,300.215,37488,trial_1_4_2
5,1,4,3,,6,5,1935.06,39431,trial_1_4_3
5,1,4,4,,9,2,358.57,39791,trial_1_4_4
5,1,4,5,,5,4,239.71,40034,trial_1_4_5
5,1,4,6,,2,8,545.42,40581,trial_1_4_6
5,1,5,1,1.0,7,7,2033.31,51139,trial_1_5_1
5,1,5,2,,8,9,398.435,51540,trial_1_5_2
5,1,5,3,1.0,2,2,399.61,51941,trial_1_5_3
5,1,5,4,1.0,8,8,343.915,52286,trial_1_5_4
5,1,5,5,,8,5,362.305,52650,trial_1_5_5
5,1,5,6,1.0,6,6,317.57,52970,trial_1_5_6
5,1,5,7,1.0,3,3,325.66,53298,trial_1_5_7
5,1,6,1,1.0,9,9,1954.78,63780,trial_1_6_1
5,1,6,2,1.0,4,4,225.14,64007,trial_1_6_2
5,1,6,3,1.0,1,1,668.87,64679,trial_1_6_3
5,1,6,4,1.0,5,5,270.97,64953,trial_1_6_4
5,1,6,5,1.0,8,8,1068.85,66025,trial_1_6_5
5,1,6,6,1.0,2,2,231.42,66263,trial_1_6_6
5,1,6,7,1.0,6,6,333.665,66599,trial_1_6_7
5,1,7,1,1.0,1,1,2081.35,76205,trial_1_7_1
5,1,7,2,1.0,7,7,308.565,76515,trial_1_7_2
5,1,7,3,1.0,3,3,325.84,76843,trial_1_7_3
5,1,7,4,1.0,4,4,304.315,77150,trial_1_7_4
5,1,7,5,1.0,5,5,887.285,78039,trial_1_7_5
5,1,7,6,1.0,2,2,240.13,78285,trial_1_7_6
5,1,8,1,1.0,5,5,1646.49,88458,trial_1_8_1
5,1,8,2,1.0,9,9,666.23,89127,trial_1_8_2
5,1,8,3,1.0,6,6,787.705,89917,trial_1_8_3
5,1,8,4,1.0,8,8,396.865,90315,trial_1_8_4
5,1,8,5,1.0,1,1,310.055,90628,trial_1_8_5
5,1,8,6,1.0,4,4,411.265,91041,trial_1_8_6
5,1,8,7,1.0,3,3,255.735,91298,trial_1_8_7
5,1,9,1,1.0,6,6,1031.27,100857,trial_1_9_1
5,1,9,2,1.0,1,1,304.22,101163,trial_1_9_2
5,1,9,3,1.0,3,3,520.42,101688,trial_1_9_3
5,1,9,4,1.0,9,9,525.6,102216,trial_1_9_4
5,1,9,5,1.0,5,5,637.725,102856,trial_1_9_5
5,1,9,6,1.0,4,4,275.105,103134,trial_1_9_6
5,1,9,7,1.0,8,8,317.495,103453,trial_1_9_7
5,1,10,1,1.0,9,9,1728.35,114711,trial_1_10_1
5,1,10,2,1.0,6,6,349.06,115061,trial_1_10_2
5,1,10,3,1.0,1,1,685.415,115749,trial_1_10_3
5,1,10,4,1.0,7,7,267.91,116019,trial_1_10_4
5,1,10,5,,1,3,281.375,116302,trial_1_10_5
5,1,10,6,,7,8,393.045,116697,trial_1_10_6
5,1,10,7,1.0,4,4,1078.98,117778,trial_1_10_7
5,1,10,8,,3,2,339.32,118120,trial_1_10_8
5,1,11,1,1.0,3,3,978.595,128634,trial_1_11_1
5,1,11,2,1.0,6,6,262.285,128897,trial_1_11_2
5,1,11,3,1.0,1,1,431.28,129332,trial_1_11_3
5,1,11,4,1.0,5,5,324.0,129658,trial_1_11_4
5,1,11,5,1.0,2,2,615.5,130275,trial_1_11_5
5,1,11,6,1.0,9,9,415.87,130693,trial_1_11_6
5,1,11,7,1.0,8,8,838.215,131532,trial_1_11_7
5,1,11,8,1.0,7,7,307.98,131843,trial_1_11_8
5,1,12,1,1.0,3,3,2249.47,144629,trial_1_12_1
5,1,12,2,1.0,9,9,313.24,144944,trial_1_12_2
5,1,12,3,1.0,5,5,573.475,145520,trial_1_12_3
5,1,12,4,1.0,2,2,414.78,145937,trial_1_12_4
5,1,12,5,1.0,7,7,461.18,146400,trial_1_12_5
5,1,12,6,1.0,8,8,309.555,146711,trial_1_12_6
5,1,12,7,1.0,1,1,306.33,147020,trial_1_12_7
5,1,12,8,1.0,4,4,242.29,147264,trial_1_12_8
5,1,12,9,1.0,6,6,278.865,147545,trial_1_12_9
5,1,13,1,1.0,8,8,7745.4,165825,trial_1_13_1
5,1,13,2,1.0,5,5,171.205,165999,trial_1_13_2
5,1,13,3,,7,6,175.05,166176,trial_1_13_3
5,1,13,4,,4,9,200.52,166379,trial_1_13_4
5,1,13,5,,6,7,1916.53,168297,trial_1_13_5
5,1,13,6,,1,4,182.345,168482,trial_1_13_6
5,1,13,7,,9,3,969.435,169453,trial_1_13_7
5,1,13,8,,3,1,383.26,169838,trial_1_13_8
5,1,13,9,,4,2,933.86,170773,trial_1_13_9
5,1,14,1,1.0,8,8,1230.36,181530,trial_1_14_1
5,1,14,2,1.0,9,9,439.31,181971,trial_1_14_2
5,1,14,3,,4,7,548.39,182521,trial_1_14_3
5,1,14,4,,7,3,229.015,182752,trial_1_14_4
5,1,14,5,,6,4,337.89,183092,trial_1_14_5
5,1,14,6,1.0,2,2,412.8,183506,trial_1_14_6
5,1,14,7,,4,6,397.4,183906,trial_1_14_7
5,1,14,8,1.0,5,5,228.78,184137,trial_1_14_8
5,2,1,1,1.0,7,7,1512.61,220554,trial_2_1_1
5,2,1,2,1.0,2,2,139.735,220697,trial_2_1_2
5,2,1,3,1.0,4,4,209.36,220908,trial_2_1_3
5,2,2,1,1.0,8,8,1295.89,227721,trial_2_2_1
5,2,2,2,1.0,9,9,237.525,227961,trial_2_2_2
5,2,2,3,1.0,7,7,360.5,228323,trial_2_2_3
5,2,2,4,1.0,6,6,189.51,228515,trial_2_2_4
5,2,3,1,1.0,2,2,1064.67,236100,trial_2_3_1
5,2,3,2,1.0,9,9,228.965,236331,trial_2_3_2
5,2,3,3,1.0,7,7,267.835,236601,trial_2_3_3
5,2,3,4,1.0,3,3,266.56,236870,trial_2_3_4
5,2,3,5,1.0,1,1,267.13,237139,trial_2_3_5
5,2,4,1,1.0,4,4,1554.16,246218,trial_2_4_1
5,2,4,2,1.0,9,9,267.65,246489,trial_2_4_2
5,2,4,3,1.0,1,1,248.035,246738,trial_2_4_3
5,2,4,4,1.0,6,6,293.61,247034,trial_2_4_4
5,2,4,5,1.0,3,3,1531.31,248568,trial_2_4_5
5,2,4,6,1.0,5,5,157.445,248727,trial_2_4_6
5,2,5,1,1.0,9,9,1451.28,258706,trial_2_5_1
5,2,5,2,1.0,4,4,418.495,259126,trial_2_5_2
5,2,5,3,1.0,2,2,608.325,259735,trial_2_5_3
5,2,5,4,1.0,7,7,404.835,260143,trial_2_5_4
5,2,5,5,1.0,5,5,1314.78,261460,trial_2_5_5
5,2,5,6,1.0,3,3,122.495,261584,trial_2_5_6
5,2,5,7,1.0,6,6,211.43,261798,trial_2_5_7
5,2,6,1,1.0,1,1,1752.15,272073,trial_2_6_1
5,2,6,2,1.0,9,9,432.305,272507,trial_2_6_2
5,2,6,3,1.0,5,5,479.685,272990,trial_2_6_3
5,2,6,4,1.0,2,2,457.56,273449,trial_2_6_4
5,2,6,5,1.0,6,6,905.36,274356,trial_2_6_5
5,2,6,6,,3,4,1181.19,275540,trial_2_6_6
5,2,6,7,,4,3,218.96,275761,trial_2_6_7
5,2,7,1,1.0,3,3,1366.91,284648,trial_2_7_1
5,2,7,2,1.0,6,6,299.795,284950,trial_2_7_2
5,2,7,3,1.0,7,7,441.32,285393,trial_2_7_3
5,2,7,4,1.0,8,8,303.655,285698,trial_2_7_4
5,2,7,5,1.0,4,4,518.005,286219,trial_2_7_5
5,2,7,6,,6,5,232.18,286453,trial_2_7_6
5,2,8,1,1.0,8,8,2239.61,297220,trial_2_8_1
5,2,8,2,,7,3,212.375,297434,trial_2_8_2
5,2,8,3,1.0,2,2,596.79,298032,trial_2_8_3
5,2,8,4,,3,7,123.245,298158,trial_2_8_4
5,2,8,5,,5,6,618.295,298779,trial_2_8_5
5,2,8,6,,6,5,241.42,299023,trial_2_8_6
5,2,8,7,,4,1,314.135,299339,trial_2_8_7
5,2,9,1,1.0,2,2,1607.88,309471,trial_2_9_1
5,2,9,2,,7,4,206.235,309680,trial_2_9_2
5,2,9,3,,8,9,236.765,309919,trial_2_9_3
5,2,9,4,,4,6,614.35,310536,trial_2_9_4
5,2,9,5,1.0,3,3,863.6,311401,trial_2_9_5
5,2,9,6,1.0,7,7,226.455,311630,trial_2_9_6
5,2,9,7,1.0,5,5,588.075,312220,trial_2_9_7
5,2,10,1,1.0,1,1,1109.73,322856,trial_2_10_1
5,2,10,2,,3,6,134.7,322994,trial_2_10_2
5,2,10,3,,5,4,363.23,323359,trial_2_10_3
5,2,10,4,1.0,8,8,207.27,323568,trial_2_10_4
5,2,10,5,,6,5,894.9,324464,trial_2_10_5
5,2,10,6,,7,9,98.015,324564,trial_2_10_6
5,2,10,7,,3,7,427.805,324993,trial_2_10_7
5,2,10,8,,4,3,235.815,325231,trial_2_10_8
5,2,11,1,1.0,4,4,1741.44,336501,trial_2_11_1
5,2,11,2,1.0,9,9,251.73,336758,trial_2_11_2
5,2,11,3,1.0,8,8,700.535,337460,trial_2_11_3
5,2,11,4,1.0,2,2,232.235,337694,trial_2_11_4
5,2,11,5,1.0,5,5,556.37,338253,trial_2_11_5
5,2,11,6,1.0,1,1,151.175,338407,trial_2_11_6
5,2,11,7,1.0,3,3,302.58,338711,trial_2_11_7
5,2,11,8,1.0,7,7,230.855,338945,trial_2_11_8
5,2,12,1,1.0,1,1,1474.41,350951,trial_2_12_1
5,2,12,2,,3,4,322.55,351275,trial_2_12_2
5,2,12,3,1.0,3,3,1939.22,353217,trial_2_12_3
5,2,12,4,1.0,7,7,296.23,353514,trial_2_12_4
5,2,12,5,1.0,5,5,1497.59,355013,trial_2_12_5
5,2,12,6,1.0,2,2,495.755,355513,trial_2_12_6
5,2,12,7,1.0,8,8,934.01,356449,trial_2_12_7
5,2,12,8,1.0,6,6,238.44,356690,trial_2_12_8
5,2,12,9,1.0,9,9,247.97,356940,trial_2_12_9
5,2,13,1,1.0,8,8,3359.89,370835,trial_2_13_1
5,2,13,2,1.0,4,4,430.5,371268,trial_2_13_2
5,2,13,3,1.0,9,9,719.515,371989,trial_2_13_3
5,2,13,4,1.0,1,1,402.88,372394,trial_2_13_4
5,2,13,5,1.0,2,2,1184.33,373580,trial_2_13_5
5,2,13,6,1.0,5,5,642.79,374224,trial_2_13_6
5,2,13,7,1.0,6,6,469.975,374699,trial_2_13_7
5,2,13,8,1.0,7,7,626.47,375328,trial_2_13_8
5,2,13,9,1.0,3,3,2071.27,377401,trial_2_13_9
5,2,14,1,,4,2,6201.15,393136,trial_2_14_1
5,2,14,2,,1,7,118.92,393259,trial_2_14_2
5,2,14,3,,7,1,272.36,393535,trial_2_14_3
5,2,14,4,,1,3,174.06,393711,trial_2_14_4
5,2,14,5,,3,5,1097.92,394810,trial_2_14_5
5,2,14,6,,5,4,210.745,395023,trial_2_14_6
5,2,14,7,,9,6,626.575,395651,trial_2_14_7
5,2,14,8,,7,9,3519.1,399172,trial_2_14_8
5,3,1,1,1.0,8,8,1091.97,433413,trial_3_1_1
5,3,1,2,1.0,9,9,184.995,433603,trial_3_1_2
5,3,1,3,1.0,5,5,378.155,433983,trial_3_1_3
5,3,2,1,1.0,8,8,2374.7,441875,trial_3_2_1
5,3,2,2,1.0,3,3,450.4,442327,trial_3_2_2
5,3,2,3,1.0,9,9,329.995,442660,trial_3_2_3
5,3,2,4,1.0,7,7,266.035,442927,trial_3_2_4
5,3,3,1,1.0,4,4,1049.84,450496,trial_3_3_1
5,3,3,2,1.0,5,5,243.855,450743,trial_3_3_2
5,3,3,3,1.0,1,1,436.155,451182,trial_3_3_3
5,3,3,4,1.0,8,8,266.405,451450,trial_3_3_4
5,3,3,5,1.0,7,7,188.21,451641,trial_3_3_5
5,3,4,1,1.0,4,4,1010.82,460175,trial_3_4_1
5,3,4,2,,5,9,227.625,460406,trial_3_4_2
5,3,4,3,1.0,7,7,335.455,460743,trial_3_4_3
5,3,4,4,,9,5,1128.23,461874,trial_3_4_4
5,3,4,5,1.0,2,2,553.995,462429,trial_3_4_5
5,3,4,6,1.0,6,6,227.155,462658,trial_3_4_6
5,3,5,1,1.0,6,6,1405.2,472591,trial_3_5_1
5,3,5,2,1.0,4,4,198.535,472791,trial_3_5_2
5,3,5,3,1.0,7,7,284.865,473077,trial_3_5_3
5,3,5,4,1.0,1,1,249.135,473328,trial_3_5_4
5,3,5,5,1.0,2,2,245.655,473575,trial_3_5_5
5,3,5,6,1.0,3,3,227.83,473805,trial_3_5_6
5,3,5,7,1.0,5,5,244.905,474052,trial_3_5_7
5,3,6,1,,2,9,4729.27,487307,trial_3_6_1
5,3,6,2,1.0,1,1,113.68,487423,trial_3_6_2
5,3,6,3,,6,2,167.275,487592,trial_3_6_3
5,3,6,4,,7,3,97.31,487691,trial_3_6_4
5,3,6,5,1.0,8,8,1145.77,488839,trial_3_6_5
5,3,6,6,,3,7,327.87,489170,trial_3_6_6
5,3,6,7,,9,4,700.97,489874,trial_3_6_7
5,3,7,1,1.0,2,2,1428.6,498827,trial_3_7_1
5,3,7,2,,6,9,328.4,499157,trial_3_7_2
5,3,7,3,1.0,8,8,1098.21,500258,trial_3_7_3
5,3,7,4,1.0,5,5,773.685,501034,trial_3_7_4
5,3,7,5,1.0,3,3,1163.66,502199,trial_3_7_5
5,3,7,6,1.0,6,6,230.34,502432,trial_3_7_6
5,3,8,1,1.0,6,6,1104.95,512066,trial_3_8_1
5,3,8,2,1.0,5,5,355.615,512424,trial_3_8_2
5,3,8,3,1.0,3,3,245.675,512672,trial_3_8_3
5,3,8,4,1.0,1,1,442.785,513117,trial_3_8_4
5,3,8,5,1.0,7,7,390.48,513509,trial_3_8_5
5,3,8,6,1.0,4,4,306.955,513819,trial_3_8_6
5,3,8,7,1.0,8,8,503.005,514324,trial_3_8_7
5,3,9,1,1.0,9,9,1727.09,524576,trial_3_9_1
5,3,9,2,1.0,7,7,398.13,524977,trial_3_9_2
5,3,9,3,1.0,6,6,248.38,525227,trial_3_9_3
5,3,9,4,1.0,5,5,261.62,525492,trial_3_9_4
5,3,9,5,1.0,4,4,251.935,525746,trial_3_9_5
5,3,9,6,,8,3,708.66,526456,trial_3_9_6
5,3,9,7,,2,8,1385.93,527846,trial_3_9_7
5,3,10,1,1.0,1,1,941.435,538315,trial_3_10_1
5,3,10,2,1.0,2,2,349.365,538666,trial_3_10_2
5,3,10,3,1.0,5,5,489.355,539157,trial_3_10_3
5,3,10,4,1.0,7,7,413.565,539572,trial_3_10_4
5,3,10,5,1.0,6,6,1043.28,540617,trial_3_10_5
5,3,10,6,,4,8,267.35,540887,trial_3_10_6
5,3,10,7,,8,3,281.82,541179,trial_3_10_7
5,3,10,8,1.0,9,9,336.005,541517,trial_3_10_8
5,3,11,1,1.0,2,2,1145.61,552191,trial_3_11_1
5,3,11,2,1.0,1,1,370.155,552566,trial_3_11_2
5,3,11,3,1.0,8,8,495.64,553063,trial_3_11_3
5,3,11,4,1.0,7,7,982.03,554047,trial_3_11_4
5,3,11,5,1.0,4,4,325.67,554374,trial_3_11_5
5,3,11,6,1.0,3,3,317.655,554695,trial_3_11_6
5,3,11,7,1.0,5,5,312.085,555010,trial_3_11_7
5,3,11,8,1.0,9,9,325.89,555338,trial_3_11_8
5,3,12,1,1.0,6,6,3148.72,569021,trial_3_12_1
5,3,12,2,,9,5,421.65,569445,trial_3_12_2
5,3,12,3,1.0,8,8,246.715,569693,trial_3_12_3
5,3,12,4,1.0,2,2,271.84,569967,trial_3_12_4
5,3,12,5,1.0,1,1,267.105,570237,trial_3_12_5
5,3,12,6,1.0,7,7,229.45,570468,trial_3_12_6
5,3,12,7,,2,3,852.735,571322,trial_3_12_7
5,3,12,8,,5,4,573.965,571898,trial_3_12_8
5,3,12,9,,4,9,231.185,572132,trial_3_12_9
5,3,13,1,1.0,8,8,1029.46,583699,trial_3_13_1
5,3,13,2,,5,4,709.61,584411,trial_3_13_2
5,3,13,3,1.0,6,6,1302.29,585714,trial_3_13_3
5,3,13,4,,2,7,2627.14,588344,trial_3_13_4
5,3,13,5,,4,5,521.255,588868,trial_3_13_5
5,3,13,6,1.0,3,3,4210.98,593081,trial_3_13_6
5,3,13,7,,8,1,1021.32,594104,trial_3_13_7
5,3,13,8,,1,2,208.125,594322,trial_3_13_8
5,3,13,9,1.0,9,9,215.915,594541,trial_3_13_9
5,3,14,1,,1,7,1389.89,605471,trial_3_14_1
5,3,14,2,,8,5,327.225,605800,trial_3_14_2
5,3,14,3,1.0,4,4,474.685,606277,trial_3_14_3
5,3,14,4,,7,1,492.095,606771,trial_3_14_4
5,3,14,5,1.0,9,9,606.52,607380,trial_3_14_5
5,3,14,6,1.0,6,6,608.54,607990,trial_3_14_6
5,3,14,7,1.0,3,3,216.11,608208,trial_3_14_7
5,3,14,8,1.0,2,2,227.2,608437,trial_3_14_8
5,4,1,1,1.0,6,6,875.255,642710,trial_4_1_1
5,4,1,2,1.0,8,8,814.43,643527,trial_4_1_2
5,4,1,3,1.0,5,5,392.33,643921,trial_4_1_3
5,4,2,1,1.0,4,4,1019.11,650459,trial_4_2_1
5,4,2,2,1.0,8,8,574.41,651035,trial_4_2_2
5,4,2,3,1.0,2,2,223.975,651263,trial_4_2_3
5,4,2,4,1.0,1,1,197.02,651462,trial_4_2_4
5,4,3,1,1.0,6,6,1286.0,659273,trial_4_3_1
5,4,3,2,1.0,1,1,283.575,659559,trial_4_3_2
5,4,3,3,1.0,3,3,461.485,660022,trial_4_3_3
5,4,3,4,1.0,9,9,1184.41,661209,trial_4_3_4
5,4,3,5,1.0,5,5,309.18,661520,trial_4_3_5
5,4,4,1,1.0,2,2,951.145,669993,trial_4_4_1
5,4,4,2,1.0,6,6,522.74,670518,trial_4_4_2
5,4,4,3,1.0,4,4,374.215,670895,trial_4_4_3
5,4,4,4,1.0,9,9,414.73,671311,trial_4_4_4
5,4,4,5,1.0,5,5,477.305,671791,trial_4_4_5
5,4,4,6,1.0,3,3,289.895,672083,trial_4_4_6
5,4,5,1,1.0,1,1,1363.8,681973,trial_4_5_1
5,4,5,2,1.0,9,9,607.3,682583,trial_4_5_2
5,4,5,3,1.0,6,6,545.055,683130,trial_4_5_3
5,4,5,4,1.0,7,7,489.33,683621,trial_4_5_4
5,4,5,5,1.0,4,4,413.085,684037,trial_4_5_5
5,4,5,6,1.0,2,2,396.765,684436,trial_4_5_6
5,4,5,7,1.0,5,5,282.59,684722,trial_4_5_7
5,4,6,1,1.0,5,5,1005.95,694256,trial_4_6_1
5,4,6,2,1.0,3,3,551.165,694810,trial_4_6_2
5,4,6,3,1.0,8,8,642.43,695454,trial_4_6_3
5,4,6,4,1.0,2,2,493.33,695949,trial_4_6_4
5,4,6,5,1.0,7,7,412.595,696364,trial_4_6_5
5,4,6,6,1.0,4,4,226.895,696593,trial_4_6_6
5,4,6,7,1.0,1,1,325.61,696922,trial_4_6_7
5,4,7,1,1.0,8,8,1152.39,705601,trial_4_7_1
5,4,7,2,1.0,5,5,374.545,705978,trial_4_7_2
5,4,7,3,1.0,7,7,387.465,706367,trial_4_7_3
5,4,7,4,1.0,9,9,1149.86,707519,trial_4_7_4
5,4,7,5,1.0,4,4,411.8,707933,trial_4_7_5
5,4,7,6,1.0,2,2,306.54,708241,trial_4_7_6
5,4,8,1,1.0,8,8,1062.94,717834,trial_4_8_1
5,4,8,2,1.0,6,6,920.215,718756,trial_4_8_2
5,4,8,3,1.0,4,4,378.415,719137,trial_4_8_3
5,4,8,4,1.0,2,2,428.805,719567,trial_4_8_4
5,4,8,5,1.0,3,3,407.94,719977,trial_4_8_5
5,4,8,6,1.0,9,9,308.98,720289,trial_4_8_6
5,4,8,7,1.0,5,5,341.87,720633,trial_4_8_7
5,4,9,1,1.0,3,3,1548.04,730712,trial_4_9_1
5,4,9,2,1.0,4,4,270.45,730984,trial_4_9_2
5,4,9,3,1.0,2,2,632.04,731618,trial_4_9_3
5,4,9,4,1.0,1,1,231.72,731852,trial_4_9_4
5,4,9,5,1.0,6,6,902.93,732758,trial_4_9_5
5,4,9,6,1.0,8,8,209.595,732970,trial_4_9_6
5,4,9,7,1.0,7,7,174.93,733146,trial_4_9_7
5,4,10,1,,6,5,1564.84,744240,trial_4_10_1
5,4,10,2,1.0,1,1,3549.52,747791,trial_4_10_2
5,4,10,3,1.0,3,3,336.65,748130,trial_4_10_3
5,4,10,4,1.0,6,6,504.18,748637,trial_4_10_4
5,4,10,5,1.0,4,4,536.78,749176,trial_4_10_5
5,4,10,6,1.0,9,9,829.015,750007,trial_4_10_6
5,4,10,7,1.0,2,2,822.28,750833,trial_4_10_7
5,4,10,8,1.0,7,7,231.055,751065,trial_4_10_8
5,4,11,1,1.0,4,4,1922.74,762516,trial_4_11_1
5,4,11,2,1.0,7,7,258.985,762777,trial_4_11_2
5,4,11,3,1.0,6,6,213.725,762992,trial_4_11_3
5,4,11,4,1.0,3,3,1036.84,764031,trial_4_11_4
5,4,11,5,1.0,9,9,280.555,764314,trial_4_11_5
5,4,11,6,1.0,1,1,456.865,764772,trial_4_11_6
5,4,11,7,1.0,2,2,277.29,765052,trial_4_11_7
5,4,11,8,1.0,8,8,318.71,765373,trial_4_11_8
5,4,12,1,,5,4,1359.69,777260,trial_4_12_1
5,4,12,2,,4,6,161.405,777424,trial_4_12_2
5,4,12,3,1.0,3,3,220.165,777646,trial_4_12_3
5,4,12,4,,2,5,1216.51,778864,trial_4_12_4
5,4,12,5,1.0,8,8,330.75,779199,trial_4_12_5
5,4,12,6,1.0,9,9,219.965,779420,trial_4_12_6
5,4,12,7,,6,2,1037.01,780459,trial_4_12_7
5,4,12,8,1.0,1,1,196.455,780658,trial_4_12_8
5,4,12,9,1.0,7,7,200.995,780861,trial_4_12_9
5,4,13,1,1.0,1,1,1311.65,792706,trial_4_13_1
5,4,13,2,1.0,3,3,298.615,793008,trial_4_13_2
5,4,13,3,1.0,4,4,237.045,793249,trial_4_13_3
5,4,13,4,1.0,7,7,407.04,793659,trial_4_13_4
5,4,13,5,1.0,2,2,560.545,794221,trial_4_13_5
5,4,13,6,1.0,8,8,373.48,794596,trial_4_13_6
5,4,13,7,1.0,6,6,492.84,795091,trial_4_13_7
5,4,13,8,,8,9,1856.36,796949,trial_4_13_8
5,4,13,9,,4,5,164.93,797117,trial_4_13_9
5,4,14,1,,6,9,1330.88,807979,trial_4_14_1
5,4,14,2,1.0,6,6,795.53,808776,trial_4_14_2
5,4,14,3,1.0,1,1,397.365,809177,trial_4_14_3
5,4,14,4,,9,8,2429.1,811608,trial_4_14_4
5,4,14,5,,8,7,353.375,811963,trial_4_14_5
5,4,14,6,,4,5,506.8,812472,trial_4_14_6
5,4,14,7,1.0,3,3,303.62,812778,trial_4_14_7
5,4,14,8,1.0,2,2,271.815,813051,trial_4_14_8
6,1,1,1,1.0,8,8,2045.66,75582,trial_1_1_1
6,1,1,2,1.0,3,3,627.975,76214,trial_1_1_2
6,1,1,3,1.0,5,5,573.805,76794,trial_1_1_3
6,1,2,1,1.0,5,5,2298.44,84610,trial_1_2_1
6,1,2,2,1.0,8,8,517.235,85130,trial_1_2_2
6,1,2,3,1.0,2,2,627.425,85760,trial_1_2_3
6,1,2,4,1.0,9,9,495.25,86258,trial_1_2_4
6,1,3,1,1.0,2,2,2024.34,94804,trial_1_3_1
6,1,3,2,1.0,6,6,704.26,95511,trial_1_3_2
6,1,3,3,1.0,8,8,622.51,96137,trial_1_3_3
6,1,3,4,1.0,7,7,459.735,96599,trial_1_3_4
6,1,3,5,1.0,3,3,524.73,97127,trial_1_3_5
6,1,4,1,1.0,2,2,950.35,105596,trial_1_4_1
6,1,4,2,1.0,8,8,656.225,106255,trial_1_4_2
6,1,4,3,1.0,7,7,441.71,106699,trial_1_4_3
6,1,4,4,1.0,4,4,469.525,107171,trial_1_4_4
6,1,4,5,1.0,6,6,652.85,107826,trial_1_4_5
6,1,4,6,,8,1,1001.86,108830,trial_1_4_6
6,1,5,1,1.0,9,9,1427.44,118784,trial_1_5_1
6,1,5,2,,8,6,854.185,119641,trial_1_5_2
6,1,5,3,,7,5,432.3,120077,trial_1_5_3
6,1,5,4,1.0,2,2,794.995,120874,trial_1_5_4
6,1,5,5,1.0,4,4,473.935,121350,trial_1_5_5
6,1,5,6,,6,8,724.85,122077,trial_1_5_6
6,1,5,7,,8,1,1240.07,123320,trial_1_5_7
6,1,6,1,1.0,3,3,438.155,132279,trial_1_6_1
6,1,6,2,1.0,8,8,626.28,132908,trial_1_6_2
6,1,6,3,1.0,4,4,502.41,133413,trial_1_6_3
6,1,6,4,1.0,7,7,434.685,133851,trial_1_6_4
6,1,6,5,1.0,5,5,437.215,134294,trial_1_6_5
6,1,6,6,1.0,2,2,508.83,134805,trial_1_6_6
6,1,6,7,1.0,1,1,390.54,135198,trial_1_6_7
6,1,7,1,1.0,9,9,1768.34,144486,trial_1_7_1
6,1,7,2,1.0,5,5,522.76,145011,trial_1_7_2
6,1,7,3,,4,3,2000.31,147014,trial_1_7_3
6,1,7,4,,3,7,400.015,147416,trial_1_7_4
6,1,7,5,,1,8,357.33,147776,trial_1_7_5
6,1,7,6,,9,2,7741.62,155521,trial_1_7_6
6,1,8,1,1.0,9,9,1316.47,165360,trial_1_8_1
6,1,8,2,1.0,2,2,1310.28,166673,trial_1_8_2
6,1,8,3,1.0,3,3,1462.27,168138,trial_1_8_3
6,1,8,4,1.0,4,4,311.6,168452,trial_1_8_4
6,1,8,5,,5,8,1086.84,169543,trial_1_8_5
6,1,8,6,,8,1,566.58,170112,trial_1_8_6
6,1,8,7,1.0,6,6,1439.07,171554,trial_1_8_7
6,1,9,1,1.0,7,7,1231.61,181307,trial_1_9_1
6,1,9,2,1.0,2,2,614.64,181925,trial_1_9_2
6,1,9,3,1.0,8,8,555.09,182482,trial_1_9_3
6,1,9,4,1.0,9,9,591.85,183076,trial_1_9_4
6,1,9,5,,1,3,626.455,183705,trial_1_9_5
6,1,9,6,,3,6,515.685,184223,trial_1_9_6
6,1,9,7,,6,5,613.285,184840,trial_1_9_7
6,1,10,1,1.0,2,2,1267.67,195635,trial_1_10_1
6,1,10,2,1.0,9,9,465.525,196103,trial_1_10_2
6,1,10,3,1.0,5,5,522.985,196629,trial_1_10_3
6,1,10,4,1.0,1,1,657.05,197288,trial_1_10_4
6,1,10,5,1.0,4,4,772.875,198064,trial_1_10_5
6,1,10,6,1.0,6,6,611.875,198678,trial_1_10_6
6,1,10,7,1.0,3,3,640.65,199322,trial_1_10_7
6,1,10,8,1.0,8,8,3307.25,202631,trial_1_10_8
6,1,11,1,1.0,9,9,1796.57,213951,trial_1_11_1
6,1,11,2,1.0,4,4,1049.53,215003,trial_1_11_2
6,1,11,3,1.0,1,1,735.865,215742,trial_1_11_3
6,1,11,4,1.0,3,3,574.365,216319,trial_1_11_4
6,1,11,5,1.0,6,6,555.865,216876,trial_1_11_5
6,1,11,6,1.0,2,2,497.17,217375,trial_1_11_6
6,1,11,7,,5,8,3333.21,220710,trial_1_11_7
6,1,11,8,,8,5,10704.3,231417,trial_1_11_8
6,1,12,1,1.0,4,4,1651.71,243597,trial_1_12_1
6,1,12,2,1.0,2,2,452.96,244053,trial_1_12_2
6,1,12,3,,5,7,394.12,244450,trial_1_12_3
6,1,12,4,1.0,3,3,527.395,244980,trial_1_12_4
6,1,12,5,1.0,9,9,870.585,245853,trial_1_12_5
6,1,12,6,1.0,8,8,468.065,246323,trial_1_12_6
6,1,12,7,,7,1,499.09,246824,trial_1_12_7
6,1,12,8,,2,5,1859.22,248685,trial_1_12_8
6,1,12,9,1.0,6,6,649.89,249336,trial_1_12_9
6,1,13,1,1.0,3,3,1722.18,261583,trial_1_13_1
6,1,13,2,1.0,6,6,510.28,262096,trial_1_13_2
6,1,13,3,,9,1,1530.79,263629,trial_1_13_3
6,1,13,4,1.0,8,8,258.355,263890,trial_1_13_4
6,1,13,5,,2,7,527.2,264420,trial_1_13_5
6,1,13,6,,1,4,323.4,264745,trial_1_13_6
6,1,13,7,,6,9,1139.97,265887,trial_1_13_7
6,1,13,8,1.0,5,5,289.49,266179,trial_1_13_8
6,1,13,9,,4,2,1063.53,267245,trial_1_13_9
6,1,14,1,1.0,2,2,1280.35,278049,trial_1_14_1
6,1,14,2,,9,8,493.555,278544,trial_1_14_2
6,1,14,3,,8,1,1172.67,279719,trial_1_14_3
6,1,14,4,,1,3,756.355,280477,trial_1_14_4
6,1,14,5,,5,7,2337.27,282816,trial_1_14_5
6,1,14,6,,7,5,1204.69,284023,trial_1_14_6
6,1,14,7,1.0,9,9,958.675,284985,trial_1_14_7
6,1,14,8,,8,6,425.395,285413,trial_1_14_8
6,2,1,1,,3,2,1766.52,328906,trial_2_1_1
6,2,1,2,1.0,5,5,288.115,329197,trial_2_1_2
6,2,1,3,,2,3,448.945,329649,trial_2_1_3
6,2,2,1,1.0,9,9,1030.19,336192,trial_2_2_1
6,2,2,2,1.0,4,4,460.57,336655,trial_2_2_2
6,2,2,3,1.0,5,5,424.135,337080,trial_2_2_3
6,2,2,4,1.0,6,6,186.465,337269,trial_2_2_4
6,2,3,1,1.0,8,8,813.175,344597,trial_2_3_1
6,2,3,2,1.0,5,5,849.775,345449,trial_2_3_2
6,2,3,3,1.0,9,9,797.085,346249,trial_2_3_3
6,2,3,4,1.0,1,1,631.42,346883,trial_2_3_4
6,2,3,5,1.0,2,2,429.075,347315,trial_2_3_5
6,2,4,1,1.0,8,8,843.54,355679,trial_2_4_1
6,2,4,2,1.0,7,7,529.52,356211,trial_2_4_2
6,2,4,3,1.0,1,1,630.36,356845,trial_2_4_3
6,2,4,4,1.0,5,5,458.715,357306,trial_2_4_4
6,2,4,5,1.0,6,6,523.535,357831,trial_2_4_5
6,2,4,6,1.0,3,3,400.445,358234,trial_2_4_6
6,2,5,1,1.0,6,6,1035.7,367791,trial_2_5_1
6,2,5,2,,5,1,713.6,368508,trial_2_5_2
6,2,5,3,,1,5,1041.81,369552,trial_2_5_3
6,2,5,4,1.0,9,9,862.15,370416,trial_2_5_4
6,2,5,5,,7,3,1349.01,371766,trial_2_5_5
6,2,5,6,1.0,8,8,926.345,372695,trial_2_5_6
6,2,5,7,,3,4,214.355,372912,trial_2_5_7
6,2,6,1,1.0,9,9,988.115,382424,trial_2_6_1
6,2,6,2,,7,5,1356.04,383782,trial_2_6_2
6,2,6,3,,5,7,554.59,384340,trial_2_6_3
6,2,6,4,1.0,6,6,448.6,384791,trial_2_6_4
6,2,6,5,1.0,4,4,1567.6,386361,trial_2_6_5
6,2,6,6,1.0,8,8,1456.55,387820,trial_2_6_6
6,2,6,7,,3,1,215.93,388038,trial_2_6_7
6,2,7,1,1.0,7,7,1328.62,396888,trial_2_7_1
6,2,7,2,1.0,1,1,1135.24,398026,trial_2_7_2
6,2,7,3,1.0,3,3,651.12,398678,trial_2_7_3
6,2,7,4,1.0,4,4,526.9,399206,trial_2_7_4
6,2,7,5,1.0,2,2,567.6,399775,trial_2_7_5
6,2,7,6,,5,8,1170.39,400947,trial_2_7_6
6,2,8,1,1.0,4,4,1092.22,410565,trial_2_8_1
6,2,8,2,1.0,1,1,513.76,411081,trial_2_8_2
6,2,8,3,1.0,9,9,623.34,411707,trial_2_8_3
6,2,8,4,1.0,2,2,367.8,412077,trial_2_8_4
6,2,8,5,1.0,3,3,447.27,412526,trial_2_8_5
6,2,8,6,1.0,5,5,426.03,412953,trial_2_8_6
6,2,8,7,1.0,7,7,389.72,413346,trial_2_8_7
6,2,9,1,1.0,9,9,1356.76,423224,trial_2_9_1
6,2,9,2,1.0,1,1,361.4,423588,trial_2_9_2
6,2,9,3,1.0,2,2,392.54,423983,trial_2_9_3
6,2,9,4,1.0,8,8,488.18,424474,trial_2_9_4
6,2,9,5,1.0,3,3,445.225,424923,trial_2_9_5
6,2,9,6,1.0,5,5,487.04,425412,trial_2_9_6
6,2,9,7,1.0,4,4,392.125,425807,trial_2_9_7
6,2,10,1,1.0,9,9,933.32,436265,trial_2_10_1
6,2,10,2,,1,6,433.89,436702,trial_2_10_2
6,2,10,3,1.0,2,2,382.92,437087,trial_2_10_3
6,2,10,4,,6,1,444.125,437533,trial_2_10_4
6,2,10,5,,7,3,2267.85,439803,trial_2_10_5
6,2,10,6,,3,8,380.65,440186,trial_2_10_6
6,2,10,7,,8,4,706.865,440896,trial_2_10_7
6,2,10,8,,4,7,225.28,441123,trial_2_10_8
6,2,11,1,1.0,2,2,1082.27,451732,trial_2_11_1
6,2,11,2,,8,6,743.48,452477,trial_2_11_2
6,2,11,3,,6,8,710.915,453190,trial_2_11_3
6,2,11,4,1.0,4,4,533.6,453727,trial_2_11_4
6,2,11,5,,1,5,493.26,454222,trial_2_11_5
6,2,11,6,,7,1,498.16,454723,trial_2_11_6
6,2,11,7,,5,7,468.82,455194,trial_2_11_7
6,2,11,8,1.0,3,3,438.91,455635,trial_2_11_8
6,2,12,1,1.0,4,4,963.435,467124,trial_2_12_1
6,2,12,2,1.0,2,2,468.52,467595,trial_2_12_2
6,2,12,3,1.0,5,5,538.62,468136,trial_2_12_3
6,2,12,4,1.0,6,6,423.7,468561,trial_2_12_4
6,2,12,5,1.0,7,7,460.62,469024,trial_2_12_5
6,2,12,6,,1,3,3063.61,472090,trial_2_12_6
6,2,12,7,,3,1,1240.64,473334,trial_2_12_7
6,2,12,8,,8,9,324.87,473662,trial_2_12_8
6,2,12,9,,2,8,3261.34,476926,trial_2_12_9
6,2,13,1,1.0,9,9,2019.68,489477,trial_2_13_1
6,2,13,2,1.0,3,3,599.8,490078,trial_2_13_2
6,2,13,3,1.0,4,4,532.245,490612,trial_2_13_3
6,2,13,4,1.0,8,8,1097.35,491711,trial_2_13_4
6,2,13,5,1.0,6,6,551.495,492265,trial_2_13_5
6,2,13,6,1.0,5,5,1657.59,493925,trial_2_13_6
6,2,13,7,,1,7,716.015,494643,trial_2_13_7
6,2,13,8,,2,1,357.85,495004,trial_2_13_8
6,2,13,9,,3,2,960.11,495966,trial_2_13_9
6,2,14,1,1.0,5,5,1593.84,507087,trial_2_14_1
6,2,14,2,1.0,4,4,669.145,507759,trial_2_14_2
6,2,14,3,,1,9,883.51,508646,trial_2_14_3
6,2,14,4,1.0,7,7,1318.21,509967,trial_2_14_4
6,2,14,5,,3,1,5452.51,515422,trial_2_14_5
6,2,14,6,,2,3,239.4,515666,trial_2_14_6
6,2,14,7,,8,2,222.01,515890,trial_2_14_7
6,2,14,8,,7,8,12876.3,528769,trial_2_14_8
6,3,1,1,1.0,4,4,1728.41,563062,trial_3_1_1
6,3,1,2,1.0,9,9,1146.78,564211,trial_3_1_2
6,3,1,3,1.0,2,2,205.025,564419,trial_3_1_3
6,3,2,1,1.0,1,1,1098.74,571034,trial_3_2_1
6,3,2,2,1.0,5,5,394.16,571431,trial_3_2_2
6,3,2,3,1.0,3,3,457.99,571892,trial_3_2_3
6,3,2,4,1.0,6,6,324.075,572218,trial_3_2_4
6,3,3,1,1.0,4,4,648.76,579387,trial_3_3_1
6,3,3,2,1.0,5,5,370.505,579758,trial_3_3_2
6,3,3,3,1.0,7,7,293.845,580053,trial_3_3_3
6,3,3,4,1.0,6,6,312.62,580368,trial_3_3_4
6,3,3,5,1.0,9,9,734.435,581103,trial_3_3_5
6,3,4,1,1.0,2,2,2020.56,590646,trial_3_4_1
6,3,4,2,,5,7,423.76,591071,trial_3_4_2
6,3,4,3,,7,3,529.345,591602,trial_3_4_3
6,3,4,4,,3,5,454.655,592060,trial_3_4_4
6,3,4,5,,9,1,1686.61,593750,trial_3_4_5
6,3,4,6,,1,8,665.25,594418,trial_3_4_6
6,3,5,1,1.0,9,9,1591.35,604534,trial_3_5_1
6,3,5,2,,7,5,452.01,604988,trial_3_5_2
6,3,5,3,,5,7,415.4,605406,trial_3_5_3
6,3,5,4,1.0,3,3,854.5,606263,trial_3_5_4
6,3,5,5,1.0,6,6,640.625,606906,trial_3_5_5
6,3,5,6,1.0,2,2,454.365,607365,trial_3_5_6
6,3,5,7,1.0,1,1,299.515,607668,trial_3_5_7
6,3,6,1,,9,1,1918.39,618108,trial_3_6_1
6,3,6,2,,7,4,358.765,618469,trial_3_6_2
6,3,6,3,,3,9,599.495,619070,trial_3_6_3
6,3,6,4,,4,7,517.585,619589,trial_3_6_4
6,3,6,5,,2,8,573.91,620165,trial_3_6_5
6,3,6,6,,1,3,395.61,620563,trial_3_6_6
6,3,6,7,,8,6,740.43,621306,trial_3_6_7
6,3,7,1,1.0,6,6,1627.98,630456,trial_3_7_1
6,3,7,2,1.0,7,7,425.5,630884,trial_3_7_2
6,3,7,3,,5,4,510.62,631397,trial_3_7_3
6,3,7,4,,4,8,2297.35,633697,trial_3_7_4
6,3,7,5,,8,5,433.485,634132,trial_3_7_5
6,3,7,6,,2,1,552.245,634687,trial_3_7_6
6,3,8,1,1.0,6,6,2532.69,645740,trial_3_8_1
6,3,8,2,,7,2,512.24,646255,trial_3_8_2
6,3,8,3,,5,9,667.385,646927,trial_3_8_3
6,3,8,4,1.0,3,3,701.285,647631,trial_3_8_4
6,3,8,5,1.0,4,4,566.285,648199,trial_3_8_5
6,3,8,6,,6,5,606.475,648808,trial_3_8_6
6,3,8,7,1.0,8,8,2232.34,651043,trial_3_8_7
6,3,9,1,1.0,1,1,1389.2,660960,trial_3_9_1
6,3,9,2,1.0,7,7,713.67,661676,trial_3_9_2
6,3,9,3,1.0,2,2,1164.84,662843,trial_3_9_3
6,3,9,4,1.0,9,9,868.71,663715,trial_3_9_4
6,3,9,5,1.0,4,4,563.475,664281,trial_3_9_5
6,3,9,6,,6,5,1240.03,665523,trial_3_9_6
6,3,9,7,,5,8,1111.96,666640,trial_3_9_7
6,3,10,1,,9,7,2040.71,678206,trial_3_10_1
6,3,10,2,,2,9,370.035,678578,trial_3_10_2
6,3,10,3,,1,5,369.395,678950,trial_3_10_3
6,3,10,4,,3,4,862.74,679815,trial_3_10_4
6,3,10,5,,6,8,794.455,680612,trial_3_10_5
6,3,10,6,,7,3,387.305,681001,trial_3_10_6
6,3,10,7,,8,1,481.305,681487,trial_3_10_7
6,3,10,8,,5,6,547.845,682037,trial_3_10_8
6,3,11,1,,9,1,2011.8,693575,trial_3_11_1
6,3,11,2,,5,9,237.045,693815,trial_3_11_2
6,3,11,3,,7,4,484.45,694301,trial_3_11_3
6,3,11,4,1.0,3,3,585.325,694891,trial_3_11_4
6,3,11,5,,8,2,714.95,695608,trial_3_11_5
6,3,11,6,1.0,7,7,958.705,696569,trial_3_11_6
6,3,11,7,,2,8,265.485,696837,trial_3_11_7
6,3,11,8,,1,5,217.345,697057,trial_3_11_8
6,3,12,1,,8,4,1758.2,709348,trial_3_12_1
6,3,12,2,,7,8,452.31,709803,trial_3_12_2
6,3,12,3,1.0,3,3,522.115,710328,trial_3_12_3
6,3,12,4,1.0,5,5,331.915,710662,trial_3_12_4
6,3,12,5,,4,7,261.79,710926,trial_3_12_5
6,3,12,6,1.0,6,6,1306.42,712236,trial_3_12_6
6,3,12,7,,7,1,354.155,712591,trial_3_12_7
6,3,12,8,1.0,2,2,1668.7,714262,trial_3_12_8
6,3,12,9,,1,9,514.36,714780,trial_3_12_9
6,3,13,1,,9,3,1439.81,726748,trial_3_13_1
6,3,13,2,,5,6,713.75,727464,trial_3_13_2
6,3,13,3,,7,8,381.305,727848,trial_3_13_3
6,3,13,4,,8,7,373.18,728223,trial_3_13_4
6,3,13,5,,3,4,547.9,728773,trial_3_13_5
6,3,13,6,,4,9,292.33,729067,trial_3_13_6
6,3,13,7,,1,2,869.645,729938,trial_3_13_7
6,3,13,8,,7,5,456.375,730395,trial_3_13_8
6,3,13,9,,8,1,1235.23,731632,trial_3_13_9
6,3,14,1,,2,1,1661.52,742826,trial_3_14_1
6,3,14,2,,1,2,259.345,743087,trial_3_14_2
6,3,14,3,1.0,7,7,576.815,743666,trial_3_14_3
6,3,14,4,1.0,8,8,367.705,744037,trial_3_14_4
6,3,14,5,,5,6,2061.43,746101,trial_3_14_5
6,3,14,6,,4,9,491.65,746595,trial_3_14_6
6,3,14,7,,6,4,337.83,746935,trial_3_14_7
6,3,14,8,,9,5,742.775,747680,trial_3_14_8
6,4,1,1,1.0,6,6,890.18,783573,trial_4_1_1
6,4,1,2,1.0,8,8,457.78,784036,trial_4_1_2
6,4,1,3,1.0,3,3,513.095,784552,trial_4_1_3
6,4,2,1,1.0,7,7,502.535,790574,trial_4_2_1
6,4,2,2,1.0,4,4,1176.83,791753,trial_4_2_2
6,4,2,3,1.0,8,8,660.675,792417,trial_4_2_3
6,4,2,4,1.0,5,5,661.285,793081,trial_4_2_4
6,4,3,1,,7,9,1271.96,800874,trial_4_3_1
6,4,3,2,,5,7,405.845,801282,trial_4_3_2
6,4,3,3,,8,5,1973.83,803257,trial_4_3_3
6,4,3,4,,3,8,657.14,803916,trial_4_3_4
6,4,3,5,,4,3,2637.82,806556,trial_4_3_5
6,4,4,1,1.0,4,4,1331.67,815406,trial_4_4_1
6,4,4,2,1.0,9,9,594.41,816001,trial_4_4_2
6,4,4,3,1.0,5,5,616.86,816620,trial_4_4_3
6,4,4,4,1.0,8,8,472.99,817094,trial_4_4_4
6,4,4,5,1.0,3,3,597.34,817694,trial_4_4_5
6,4,4,6,,1,7,497.93,818193,trial_4_4_6
6,4,5,1,1.0,7,7,1457.94,828170,trial_4_5_1
6,4,5,2,,5,6,416.15,828588,trial_4_5_2
6,4,5,3,,8,3,458.345,829050,trial_4_5_3
6,4,5,4,,3,5,1495.68,830549,trial_4_5_4
6,4,5,5,,4,9,258.54,830810,trial_4_5_5
6,4,5,6,,1,4,418.955,831232,trial_4_5_6
6,4,5,7,1.0,8,8,1287.09,832525,trial_4_5_7
6,4,6,1,1.0,9,9,1660.4,842718,trial_4_6_1
6,4,6,2,,1,5,591.86,843315,trial_4_6_2
6,4,6,3,,7,6,412.96,843732,trial_4_6_3
6,4,6,4,,6,4,354.92,844090,trial_4_6_4
6,4,6,5,1.0,3,3,499.045,844593,trial_4_6_5
6,4,6,6,,8,7,2993.5,847590,trial_4_6_6
6,4,6,7,,1,8,721.955,848318,trial_4_6_7
6,4,7,1,1.0,1,1,1558.86,857399,trial_4_7_1
6,4,7,2,,9,6,757.865,858158,trial_4_7_2
6,4,7,3,1.0,8,8,1445.7,859605,trial_4_7_3
6,4,7,4,,7,9,325.325,859932,trial_4_7_4
6,4,7,5,,6,7,1360.73,861295,trial_4_7_5
6,4,7,6,1.0,3,3,513.91,861813,trial_4_7_6
6,4,8,1,,8,9,1284.28,871612,trial_4_8_1
6,4,8,2,,9,6,450.37,872066,trial_4_8_2
6,4,8,3,1.0,1,1,577.4,872647,trial_4_8_3
6,4,8,4,,6,8,538.295,873189,trial_4_8_4
6,4,8,5,,7,5,524.76,873716,trial_4_8_5
6,4,8,6,,5,7,537.95,874257,trial_4_8_6
6,4,8,7,1.0,3,3,418.255,874678,trial_4_8_7
6,4,9,1,1.0,1,1,1051.14,884257,trial_4_9_1
6,4,9,2,1.0,2,2,343.61,884604,trial_4_9_2
6,4,9,3,1.0,8,8,633.05,885240,trial_4_9_3
6,4,9,4,1.0,9,9,377.585,885620,trial_4_9_4
6,4,9,5,1.0,4,4,2163.36,887787,trial_4_9_5
6,4,9,6,1.0,6,6,633.115,888423,trial_4_9_6
6,4,9,7,1.0,7,7,353.185,888780,trial_4_9_7
6,4,10,1,1.0,7,7,1147.94,899456,trial_4_10_1
6,4,10,2,1.0,4,4,564.495,900023,trial_4_10_2
6,4,10,3,1.0,8,8,486.395,900512,trial_4_10_3
6,4,10,4,1.0,3,3,573.72,901089,trial_4_10_4
6,4,10,5,1.0,1,1,544.355,901636,trial_4_10_5
6,4,10,6,,2,6,1159.19,902796,trial_4_10_6
6,4,10,7,,6,9,809.52,903609,trial_4_10_7
6,4,10,8,,9,5,533.615,904145,trial_4_10_8
6,4,11,1,1.0,4,4,1689.14,915359,trial_4_11_1
6,4,11,2,1.0,1,1,327.21,915690,trial_4_11_2
6,4,11,3,1.0,7,7,542.235,916235,trial_4_11_3
6,4,11,4,,8,9,399.23,916637,trial_4_11_4
6,4,11,5,,3,8,661.75,917301,trial_4_11_5
6,4,11,6,,4,6,351.84,917656,trial_4_11_6
6,4,11,7,,5,3,377.21,918036,trial_4_11_7
6,4,11,8,,6,2,813.52,918852,trial_4_11_8
6,4,12,1,1.0,1,1,551.14,929936,trial_4_12_1
6,4,12,2,,9,7,976.915,930916,trial_4_12_2
6,4,12,3,,7,4,580.165,931499,trial_4_12_3
6,4,12,4,,4,9,562.065,932063,trial_4_12_4
6,4,12,5,,6,2,1593.56,933659,trial_4_12_5
6,4,12,6,,3,6,697.555,934359,trial_4_12_6
6,4,12,7,,2,3,3993.81,938355,trial_4_12_7
6,4,12,8,1.0,8,8,1219.27,939576,trial_4_12_8
6,4,12,9,,3,5,872.825,940451,trial_4_12_9
6,4,13,1,,6,8,1951.35,952932,trial_4_13_1
6,4,13,2,,2,6,1096.32,954033,trial_4_13_2
6,4,13,3,,1,2,370.215,954406,trial_4_13_3
6,4,13,4,,5,9,557.615,954966,trial_4_13_4
6,4,13,5,1.0,4,4,301.69,955271,trial_4_13_5
6,4,13,6,,7,5,515.68,955789,trial_4_13_6
6,4,13,7,,8,7,588.74,956380,trial_4_13_7
6,4,13,8,,3,1,739.585,957122,trial_4_13_8
6,4,13,9,,6,3,1130.91,958255,trial_4_13_9
6,4,14,1,1.0,8,8,1789.38,969570,trial_4_14_1
6,4,14,2,,1,7,918.725,970490,trial_4_14_2
6,4,14,3,,7,6,1372.46,971865,trial_4_14_3
6,4,14,4,,4,1,735.21,972602,trial_4_14_4
6,4,14,5,,2,5,1112.99,973718,trial_4_14_5
6,4,14,6,,5,4,2334.32,976054,trial_4_14_6
6,4,14,7,,3,2,380.18,976437,trial_4_14_7
6,4,14,8,,6,3,352.0,976792,trial_4_14_8
7,1,1,1,1.0,1,1,1295.0,90124,trial_1_1_1
7,1,1,2,1.0,9,9,463.0,90588,trial_1_1_2
7,1,1,3,1.0,6,6,227.0,90816,trial_1_1_3
7,1,2,1,1.0,5,5,681.0,97005,trial_1_2_1
7,1,2,2,1.0,6,6,252.0,97257,trial_1_2_2
7,1,2,3,1.0,8,8,805.0,98064,trial_1_2_3
7,1,2,4,1.0,1,1,202.0,98267,trial_1_2_4
7,1,3,1,1.0,3,3,754.0,105536,trial_1_3_1
7,1,3,2,1.0,1,1,371.0,105908,trial_1_3_2
7,1,3,3,1.0,4,4,361.0,106271,trial_1_3_3
7,1,3,4,1.0,5,5,263.0,106534,trial_1_3_4
7,1,3,5,1.0,9,9,255.0,106790,trial_1_3_5
7,1,4,1,1.0,7,7,1167.0,115469,trial_1_4_1
7,1,4,2,1.0,8,8,301.0,115771,trial_1_4_2
7,1,4,3,1.0,9,9,524.0,116296,trial_1_4_3
7,1,4,4,1.0,1,1,289.0,116586,trial_1_4_4
7,1,4,5,1.0,2,2,236.0,116825,trial_1_4_5
7,1,4,6,1.0,4,4,237.0,117062,trial_1_4_6
7,1,5,1,1.0,9,9,6037.0,131616,trial_1_5_1
7,1,5,2,1.0,6,6,765.0,132382,trial_1_5_2
7,1,5,3,1.0,4,4,446.0,132829,trial_1_5_3
7,1,5,4,1.0,1,1,785.0,133615,trial_1_5_4
7,1,5,5,1.0,3,3,649.0,134265,trial_1_5_5
7,1,5,6,1.0,7,7,430.0,134695,trial_1_5_6
7,1,5,7,1.0,2,2,565.0,135260,trial_1_5_7
7,1,6,1,1.0,7,7,5433.0,149214,trial_1_6_1
7,1,6,2,1.0,9,9,422.0,149637,trial_1_6_2
7,1,6,3,1.0,6,6,473.0,150111,trial_1_6_3
7,1,6,4,1.0,4,4,379.0,150490,trial_1_6_4
7,1,6,5,1.0,1,1,468.0,150959,trial_1_6_5
7,1,6,6,1.0,3,3,877.0,151838,trial_1_6_6
7,1,6,7,1.0,8,8,2426.0,154264,trial_1_6_7
7,1,7,1,1.0,9,9,1762.0,163538,trial_1_7_1
7,1,7,2,1.0,7,7,708.0,164246,trial_1_7_2
7,1,7,3,1.0,1,1,625.0,164872,trial_1_7_3
7,1,7,4,1.0,2,2,722.0,165595,trial_1_7_4
7,1,7,5,1.0,5,5,377.0,165973,trial_1_7_5
7,1,7,6,1.0,8,8,474.0,166448,trial_1_7_6
7,1,8,1,1.0,7,7,2051.0,177014,trial_1_8_1
7,1,8,2,1.0,6,6,240.0,177255,trial_1_8_2
7,1,8,3,,8,4,3796.0,181053,trial_1_8_3
7,1,8,4,,2,3,437.0,181492,trial_1_8_4
7,1,8,5,1.0,1,1,518.0,182011,trial_1_8_5
7,1,8,6,,7,2,2492.0,184503,trial_1_8_6
7,1,8,7,,2,5,5494.0,189998,trial_1_8_7
7,1,9,1,,7,9,3716.0,202233,trial_1_9_1
7,1,9,2,1.0,7,7,173.0,202407,trial_1_9_2
7,1,9,3,1.0,2,2,376.0,202783,trial_1_9_3
7,1,9,4,1.0,1,1,287.0,203070,trial_1_9_4
7,1,9,5,1.0,8,8,751.0,203821,trial_1_9_5
7,1,9,6,1.0,6,6,345.0,204166,trial_1_9_6
7,1,9,7,1.0,4,4,248.0,204414,trial_1_9_7
7,1,10,1,1.0,7,7,3222.0,217151,trial_1_10_1
7,1,10,2,1.0,6,6,1000.0,218151,trial_1_10_2
7,1,10,3,1.0,2,2,581.0,218733,trial_1_10_3
7,1,10,4,,8,3,1317.0,220051,trial_1_10_4
7,1,10,5,1.0,9,9,318.0,220369,trial_1_10_5
7,1,10,6,1.0,5,5,546.0,220915,trial_1_10_6
7,1,10,7,1.0,8,8,476.0,221392,trial_1_10_7
7,1,10,8,1.0,1,1,213.0,221606,trial_1_10_8
7,1,11,1,,6,4,2680.0,233797,trial_1_11_1
7,1,11,2,1.0,3,3,446.0,234245,trial_1_11_2
7,1,11,3,1.0,9,9,288.0,234534,trial_1_11_3
7,1,11,4,1.0,5,5,767.0,235303,trial_1_11_4
7,1,11,5,1.0,6,6,638.0,235940,trial_1_11_5
7,1,11,6,1.0,1,1,459.0,236399,trial_1_11_6
7,1,11,7,1.0,8,8,951.0,237351,trial_1_11_7
7,1,11,8,1.0,7,7,148.0,237501,trial_1_11_8
7,1,12,1,1.0,8,8,1672.0,249695,trial_1_12_1
7,1,12,2,1.0,7,7,1074.0,250769,trial_1_12_2
7,1,12,3,,3,5,1456.0,252225,trial_1_12_3
7,1,12,4,,2,6,371.0,252596,trial_1_12_4
7,1,12,5,,6,9,437.0,253034,trial_1_12_5
7,1,12,6,,9,4,620.0,253653,trial_1_12_6
7,1,12,7,,4,3,855.0,254510,trial_1_12_7
7,1,12,8,,9,2,1242.0,255753,trial_1_12_8
7,1,12,9,,2,1,514.0,256267,trial_1_12_9
7,1,13,1,1.0,9,9,1993.0,268778,trial_1_13_1
7,1,13,2,1.0,2,2,551.0,269329,trial_1_13_2
7,1,13,3,1.0,6,6,2356.0,271687,trial_1_13_3
7,1,13,4,1.0,1,1,330.0,272018,trial_1_13_4
7,1,13,5,,8,3,1763.0,273782,trial_1_13_5
7,1,13,6,1.0,4,4,894.0,274677,trial_1_13_6
7,1,13,7,,2,7,1152.0,275831,trial_1_13_7
7,1,13,8,,7,8,97.0,275928,trial_1_13_8
7,1,13,9,1.0,5,5,4659.0,280587,trial_1_13_9
7,1,14,1,1.0,5,5,2300.0,292404,trial_1_14_1
7,1,14,2,1.0,6,6,276.0,292679,trial_1_14_2
7,1,14,3,1.0,8,8,721.0,293401,trial_1_14_3
7,1,14,4,1.0,2,2,483.0,293886,trial_1_14_4
7,1,14,5,1.0,3,3,607.0,294493,trial_1_14_5
7,1,14,6,1.0,1,1,484.0,294978,trial_1_14_6
7,1,14,7,,8,4,1638.0,296618,trial_1_14_7
7,1,14,8,,5,9,123.0,296742,trial_1_14_8
7,2,1,1,1.0,3,3,1278.0,331887,trial_2_1_1
7,2,1,2,1.0,4,4,253.0,332140,trial_2_1_2
7,2,1,3,1.0,9,9,282.0,332424,trial_2_1_3
7,2,2,1,1.0,8,8,1186.0,339119,trial_2_2_1
7,2,2,2,1.0,2,2,460.0,339580,trial_2_2_2
7,2,2,3,1.0,7,7,461.0,340041,trial_2_2_3
7,2,2,4,1.0,1,1,194.0,340236,trial_2_2_4
7,2,3,1,,6,1,1642.0,348391,trial_2_3_1
7,2,3,2,,1,6,621.0,349012,trial_2_3_2
7,2,3,3,,6,5,1264.0,350277,trial_2_3_3
7,2,3,4,,5,2,471.0,350750,trial_2_3_4
7,2,3,5,,2,3,261.0,351012,trial_2_3_5
7,2,4,1,1.0,6,6,1958.0,360487,trial_2_4_1
7,2,4,2,1.0,5,5,196.0,360684,trial_2_4_2
7,2,4,3,1.0,8,8,727.0,361412,trial_2_4_3
7,2,4,4,1.0,7,7,245.0,361660,trial_2_4_4
7,2,4,5,1.0,1,1,367.0,362027,trial_2_4_5
7,2,4,6,1.0,3,3,189.0,362215,trial_2_4_6
7,2,5,1,1.0,9,9,2874.0,373607,trial_2_5_1
7,2,5,2,,1,7,623.0,374230,trial_2_5_2
7,2,5,3,1.0,6,6,827.0,375057,trial_2_5_3
7,2,5,4,1.0,1,1,738.0,375797,trial_2_5_4
7,2,5,5,1.0,8,8,619.0,376416,trial_2_5_5
7,2,5,6,1.0,5,5,719.0,377135,trial_2_5_6
7,2,5,7,,6,2,1719.0,378855,trial_2_5_7
7,2,6,1,1.0,1,1,5004.0,392373,trial_2_6_1
7,2,6,2,1.0,4,4,422.0,392796,trial_2_6_2
7,2,6,3,1.0,6,6,415.0,393212,trial_2_6_3
7,2,6,4,1.0,7,7,942.0,394155,trial_2_6_4
7,2,6,5,1.0,8,8,1702.0,395858,trial_2_6_5
7,2,6,6,1.0,3,3,330.0,396187,trial_2_6_6
7,2,6,7,1.0,2,2,302.0,396490,trial_2_6_7
7,2,7,1,1.0,6,6,1056.0,405060,trial_2_7_1
7,2,7,2,1.0,7,7,244.0,405304,trial_2_7_2
7,2,7,3,1.0,4,4,781.0,406085,trial_2_7_3
7,2,7,4,1.0,1,1,504.0,406590,trial_2_7_4
7,2,7,5,1.0,5,5,426.0,407017,trial_2_7_5
7,2,7,6,1.0,3,3,307.0,407324,trial_2_7_6
7,2,8,1,,6,3,10815.0,426662,trial_2_8_1
7,2,8,2,1.0,9,9,590.0,427252,trial_2_8_2
7,2,8,3,1.0,4,4,362.0,427615,trial_2_8_3
7,2,8,4,1.0,5,5,384.0,428001,trial_2_8_4
7,2,8,5,1.0,1,1,574.0,428575,trial_2_8_5
7,2,8,6,1.0,7,7,420.0,428996,trial_2_8_6
7,2,8,7,,3,2,1436.0,430433,trial_2_8_7
7,2,9,1,1.0,6,6,2580.0,441531,trial_2_9_1
7,2,9,2,1.0,9,9,759.0,442291,trial_2_9_2
7,2,9,3,1.0,3,3,559.0,442852,trial_2_9_3
7,2,9,4,1.0,1,1,477.0,443329,trial_2_9_4
7,2,9,5,1.0,7,7,567.0,443896,trial_2_9_5
7,2,9,6,1.0,8,8,410.0,444307,trial_2_9_6
7,2,9,7,,3,2,4176.0,448483,trial_2_9_7
7,2,10,1,,8,9,4773.0,462776,trial_2_10_1
7,2,10,2,1.0,4,4,274.0,463050,trial_2_10_2
7,2,10,3,1.0,3,3,354.0,463405,trial_2_10_3
7,2,10,4,,6,8,515.0,463921,trial_2_10_4
7,2,10,5,,7,6,2910.0,466831,trial_2_10_5
7,2,10,6,1.0,5,5,617.0,467449,trial_2_10_6
7,2,10,7,,3,2,994.0,468444,trial_2_10_7
7,2,10,8,1.0,1,1,323.0,468769,trial_2_10_8
7,2,11,1,1.0,9,9,1941.0,480231,trial_2_11_1
7,2,11,2,1.0,8,8,290.0,480523,trial_2_11_2
7,2,11,3,1.0,7,7,250.0,480773,trial_2_11_3
7,2,11,4,,6,1,4579.0,485353,trial_2_11_4
7,2,11,5,,3,5,475.0,485829,trial_2_11_5
7,2,11,6,,2,3,622.0,486450,trial_2_11_6
7,2,11,7,,6,2,434.0,486885,trial_2_11_7
7,2,11,8,1.0,6,6,3143.0,490028,trial_2_11_8
7,2,12,1,1.0,7,7,2282.0,502828,trial_2_12_1
7,2,12,2,,2,5,507.0,503336,trial_2_12_2
7,2,12,3,1.0,3,3,309.0,503646,trial_2_12_3
7,2,12,4,,8,4,772.0,504419,trial_2_12_4
7,2,12,5,,6,2,565.0,504985,trial_2_12_5
7,2,12,6,,1,6,5875.0,510861,trial_2_12_6
7,2,12,7,,7,1,360.0,511221,trial_2_12_7
7,2,12,8,,8,9,213.0,511433,trial_2_12_8
7,2,12,9,1.0,8,8,3759.0,515192,trial_2_12_9
7,2,13,1,1.0,4,4,2448.0,528156,trial_2_13_1
7,2,13,2,,2,5,582.0,528739,trial_2_13_2
7,2,13,3,1.0,8,8,533.0,529274,trial_2_13_3
7,2,13,4,1.0,9,9,768.0,530042,trial_2_13_4
7,2,13,5,,2,1,1951.0,531995,trial_2_13_5
7,2,13,6,,7,6,242.0,532238,trial_2_13_6
7,2,13,7,,4,2,823.0,533062,trial_2_13_7
7,2,13,8,,1,3,624.0,533687,trial_2_13_8
7,2,13,9,,6,7,183.0,533871,trial_2_13_9
7,2,14,1,1.0,8,8,1236.0,544634,trial_2_14_1
7,2,14,2,1.0,7,7,555.0,545190,trial_2_14_2
7,2,14,3,,2,4,3070.0,548262,trial_2_14_3
7,2,14,4,1.0,9,9,307.0,548570,trial_2_14_4
7,2,14,5,1.0,2,2,540.0,549110,trial_2_14_5
7,2,14,6,1.0,6,6,505.0,549617,trial_2_14_6
7,2,14,7,1.0,3,3,592.0,550210,trial_2_14_7
7,2,14,8,1.0,1,1,345.0,550557,trial_2_14_8
7,3,1,1,1.0,3,3,10824.0,595284,trial_3_1_1
7,3,1,2,,4,5,204.0,595490,trial_3_1_2
7,3,1,3,,5,4,869.0,596360,trial_3_1_3
7,3,2,1,1.0,9,9,1459.0,603331,trial_3_2_1
7,3,2,2,1.0,4,4,290.0,603623,trial_3_2_2
7,3,2,3,1.0,5,5,187.0,603811,trial_3_2_3
7,3,2,4,1.0,3,3,260.0,604071,trial_3_2_4
7,3,3,1,1.0,4,4,882.0,611461,trial_3_3_1
7,3,3,2,1.0,9,9,321.0,611784,trial_3_3_2
7,3,3,3,1.0,2,2,305.0,612091,trial_3_3_3
7,3,3,4,1.0,8,8,865.0,612958,trial_3_3_4
7,3,3,5,1.0,5,5,124.0,613083,trial_3_3_5
7,3,4,1,1.0,4,4,789.0,621385,trial_3_4_1
7,3,4,2,1.0,8,8,483.0,621868,trial_3_4_2
7,3,4,3,1.0,1,1,453.0,622322,trial_3_4_3
7,3,4,4,,5,7,627.0,622950,trial_3_4_4
7,3,4,5,1.0,9,9,476.0,623428,trial_3_4_5
7,3,4,6,1.0,3,3,811.0,624239,trial_3_4_6
7,3,5,1,1.0,8,8,4467.0,637225,trial_3_5_1
7,3,5,2,1.0,4,4,410.0,637635,trial_3_5_2
7,3,5,3,1.0,6,6,1231.0,638867,trial_3_5_3
7,3,5,4,1.0,1,1,1236.0,640105,trial_3_5_4
7,3,5,5,1.0,3,3,650.0,640756,trial_3_5_5
7,3,5,6,,8,5,2154.0,642910,trial_3_5_6
7,3,5,7,,4,9,147.0,643056,trial_3_5_7
7,3,6,1,1.0,4,4,1440.0,653009,trial_3_6_1
7,3,6,2,1.0,6,6,404.0,653413,trial_3_6_2
7,3,6,3,,6,3,1363.0,654777,trial_3_6_3
7,3,6,4,,8,5,607.0,655386,trial_3_6_4
7,3,6,5,1.0,7,7,1061.0,656447,trial_3_6_5
7,3,6,6,,4,8,833.0,657281,trial_3_6_6
7,3,6,7,1.0,2,2,308.0,657589,trial_3_6_7
7,3,7,1,1.0,1,1,1037.0,666149,trial_3_7_1
7,3,7,2,1.0,4,4,759.0,666910,trial_3_7_2
7,3,7,3,1.0,2,2,622.0,667532,trial_3_7_3
7,3,7,4,1.0,9,9,649.0,668182,trial_3_7_4
7,3,7,5,1.0,3,3,572.0,668755,trial_3_7_5
7,3,7,6,1.0,5,5,412.0,669168,trial_3_7_6
7,3,8,1,1.0,7,7,7589.0,685273,trial_3_8_1
7,3,8,2,,6,5,1232.0,686506,trial_3_8_2
7,3,8,3,,1,3,3549.0,690055,trial_3_8_3
7,3,8,4,1.0,9,9,457.0,690513,trial_3_8_4
7,3,8,5,1.0,2,2,517.0,691031,trial_3_8_5
7,3,8,6,1.0,4,4,299.0,691332,trial_3_8_6
7,3,8,7,1.0,1,1,396.0,691728,trial_3_8_7
7,3,9,1,1.0,7,7,12322.0,712573,trial_3_9_1
7,3,9,2,,2,3,363.0,712937,trial_3_9_2
7,3,9,3,1.0,6,6,548.0,713487,trial_3_9_3
7,3,9,4,1.0,4,4,252.0,713740,trial_3_9_4
7,3,9,5,1.0,2,2,386.0,714125,trial_3_9_5
7,3,9,6,1.0,1,1,273.0,714398,trial_3_9_6
7,3,9,7,1.0,9,9,150.0,714549,trial_3_9_7
7,3,10,1,1.0,9,9,3815.0,727887,trial_3_10_1
7,3,10,2,,3,4,477.0,728366,trial_3_10_2
7,3,10,3,,4,5,1486.0,729853,trial_3_10_3
7,3,10,4,1.0,3,3,592.0,730446,trial_3_10_4
7,3,10,5,1.0,7,7,907.0,731354,trial_3_10_5
7,3,10,6,1.0,1,1,381.0,731735,trial_3_10_6
7,3,10,7,1.0,8,8,309.0,732046,trial_3_10_7
7,3,10,8,,2,6,1463.0,733509,trial_3_10_8
7,3,11,1,1.0,9,9,1869.0,744896,trial_3_11_1
7,3,11,2,1.0,8,8,383.0,745279,trial_3_11_2
7,3,11,3,1.0,1,1,2320.0,747600,trial_3_11_3
7,3,11,4,1.0,3,3,470.0,748071,trial_3_11_4
7,3,11,5,1.0,5,5,898.0,748968,trial_3_11_5
7,3,11,6,1.0,2,2,722.0,749691,trial_3_11_6
7,3,11,7,,8,6,416.0,750109,trial_3_11_7
7,3,11,8,1.0,4,4,323.0,750433,trial_3_11_8
7,3,12,1,1.0,3,3,2328.0,763278,trial_3_12_1
7,3,12,2,1.0,8,8,836.0,764114,trial_3_12_2
7,3,12,3,1.0,9,9,491.0,764606,trial_3_12_3
7,3,12,4,1.0,2,2,1118.0,765726,trial_3_12_4
7,3,12,5,1.0,1,1,318.0,766046,trial_3_12_5
7,3,12,6,1.0,5,5,705.0,766751,trial_3_12_6
7,3,12,7,1.0,4,4,5340.0,772093,trial_3_12_7
7,3,12,8,,3,7,282.0,772374,trial_3_12_8
7,3,12,9,,1,6,729.0,773104,trial_3_12_9
7,3,13,1,1.0,3,3,2532.0,786161,trial_3_13_1
7,3,13,2,1.0,4,4,580.0,786742,trial_3_13_2
7,3,13,3,1.0,6,6,637.0,787379,trial_3_13_3
7,3,13,4,,2,5,5684.0,793064,trial_3_13_4
7,3,13,5,,4,8,494.0,793558,trial_3_13_5
7,3,13,6,,5,9,464.0,794024,trial_3_13_6
7,3,13,7,1.0,7,7,616.0,794641,trial_3_13_7
7,3,13,8,,1,2,2657.0,797299,trial_3_13_8
7,3,13,9,,4,1,415.0,797714,trial_3_13_9
7,3,14,1,1.0,9,9,1233.0,808465,trial_3_14_1
7,3,14,2,1.0,1,1,744.0,809210,trial_3_14_2
7,3,14,3,1.0,8,8,5671.0,814882,trial_3_14_3
7,3,14,4,1.0,5,5,588.0,815471,trial_3_14_4
7,3,14,5,1.0,6,6,551.0,816021,trial_3_14_5
7,3,14,6,1.0,7,7,252.0,816275,trial_3_14_6
7,3,14,7,1.0,3,3,371.0,816647,trial_3_14_7
7,3,14,8,1.0,2,2,163.0,816811,trial_3_14_8
7,4,1,1,1.0,6,6,2080.0,857664,trial_4_1_1
7,4,1,2,1.0,7,7,664.0,858329,trial_4_1_2
7,4,1,3,1.0,3,3,89.0,858419,trial_4_1_3
7,4,2,1,1.0,3,3,777.0,864707,trial_4_2_1
7,4,2,2,1.0,2,2,279.0,864986,trial_4_2_2
7,4,2,3,1.0,8,8,805.0,865791,trial_4_2_3
7,4,2,4,1.0,6,6,100.0,865892,trial_4_2_4
7,4,3,1,1.0,8,8,2476.0,874878,trial_4_3_1
7,4,3,2,1.0,6,6,465.0,875345,trial_4_3_2
7,4,3,3,1.0,5,5,460.0,875806,trial_4_3_3
7,4,3,4,1.0,9,9,463.0,876270,trial_4_3_4
7,4,3,5,1.0,1,1,287.0,876558,trial_4_3_5
7,4,4,1,1.0,2,2,1785.0,885865,trial_4_4_1
7,4,4,2,1.0,7,7,763.0,886629,trial_4_4_2
7,4,4,3,1.0,3,3,562.0,887191,trial_4_4_3
7,4,4,4,1.0,5,5,738.0,887929,trial_4_4_4
7,4,4,5,1.0,1,1,220.0,888148,trial_4_4_5
7,4,4,6,1.0,4,4,150.0,888300,trial_4_4_6
7,4,5,1,1.0,1,1,1876.0,898689,trial_4_5_1
7,4,5,2,1.0,7,7,1272.0,899961,trial_4_5_2
7,4,5,3,1.0,5,5,803.0,900765,trial_4_5_3
7,4,5,4,1.0,2,2,827.0,901593,trial_4_5_4
7,4,5,5,1.0,9,9,1556.0,903150,trial_4_5_5
7,4,5,6,1.0,6,6,1753.0,904904,trial_4_5_6
7,4,5,7,1.0,8,8,307.0,905211,trial_4_5_7
7,4,6,1,1.0,1,1,1295.0,915031,trial_4_6_1
7,4,6,2,1.0,4,4,514.0,915547,trial_4_6_2
7,4,6,3,1.0,6,6,849.0,916397,trial_4_6_3
7,4,6,4,1.0,3,3,560.0,916958,trial_4_6_4
7,4,6,5,1.0,8,8,600.0,917559,trial_4_6_5
7,4,6,6,1.0,2,2,556.0,918116,trial_4_6_6
7,4,6,7,1.0,9,9,244.0,918361,trial_4_6_7
7,4,7,1,,9,4,21014.0,946888,trial_4_7_1
7,4,7,2,,8,5,454.0,947344,trial_4_7_2
7,4,7,3,,3,7,825.0,948169,trial_4_7_3
7,4,7,4,,2,6,900.0,949071,trial_4_7_4
7,4,7,5,1.0,1,1,6194.0,955267,trial_4_7_5
7,4,7,6,,1,3,169.0,955436,trial_4_7_6
7,4,8,1,1.0,8,8,1611.0,965570,trial_4_8_1
7,4,8,2,1.0,2,2,544.0,966116,trial_4_8_2
7,4,8,3,1.0,1,1,424.0,966540,trial_4_8_3
7,4,8,4,1.0,3,3,499.0,967042,trial_4_8_4
7,4,8,5,1.0,6,6,972.0,968015,trial_4_8_5
7,4,8,6,1.0,7,7,198.0,968214,trial_4_8_6
7,4,8,7,1.0,9,9,281.0,968495,trial_4_8_7
7,4,9,1,1.0,1,1,961.0,977975,trial_4_9_1
7,4,9,2,1.0,3,3,496.0,978473,trial_4_9_2
7,4,9,3,1.0,2,2,514.0,978986,trial_4_9_3
7,4,9,4,1.0,6,6,806.0,979794,trial_4_9_4
7,4,9,5,1.0,7,7,681.0,980477,trial_4_9_5
7,4,9,6,1.0,5,5,849.0,981327,trial_4_9_6
7,4,9,7,,5,4,27666.0,1008994,trial_4_9_7
7,4,10,1,,8,3,2281.0,1020791,trial_4_10_1
7,4,10,2,,2,9,1432.0,1022223,trial_4_10_2
7,4,10,3,,9,1,540.0,1022764,trial_4_10_3
7,4,10,4,,1,5,703.0,1023468,trial_4_10_4
7,4,10,5,,5,4,602.0,1024071,trial_4_10_5
7,4,10,6,,5,8,7735.0,1031807,trial_4_10_6
7,4,10,7,,3,6,889.0,1032698,trial_4_10_7
7,4,10,8,,9,7,228.0,1032927,trial_4_10_8
7,4,11,1,1.0,3,3,628.0,1043074,trial_4_11_1
7,4,11,2,1.0,1,1,775.0,1043851,trial_4_11_2
7,4,11,3,1.0,5,5,683.0,1044535,trial_4_11_3
7,4,11,4,1.0,8,8,930.0,1045465,trial_4_11_4
7,4,11,5,1.0,6,6,951.0,1046418,trial_4_11_5
7,4,11,6,1.0,9,9,390.0,1046808,trial_4_11_6
7,4,11,7,,1,2,490.0,1047299,trial_4_11_7
7,4,11,8,1.0,7,7,281.0,1047580,trial_4_11_8
7,4,12,1,1.0,9,9,3510.0,1061610,trial_4_12_1
7,4,12,2,1.0,2,2,491.0,1062103,trial_4_12_2
7,4,12,3,,3,5,8113.0,1070218,trial_4_12_3
7,4,12,4,1.0,8,8,527.0,1070747,trial_4_12_4
7,4,12,5,1.0,1,1,755.0,1071503,trial_4_12_5
7,4,12,6,,7,4,7331.0,1078836,trial_4_12_6
7,4,12,7,,6,3,1442.0,1080281,trial_4_12_7
7,4,12,8,,9,7,1781.0,1082065,trial_4_12_8
7,4,12,9,,3,6,1410.0,1083476,trial_4_12_9
7,4,13,1,1.0,2,2,2916.0,1096915,trial_4_13_1
7,4,13,2,1.0,8,8,716.0,1097632,trial_4_13_2
7,4,13,3,1.0,3,3,976.0,1098609,trial_4_13_3
7,4,13,4,1.0,5,5,507.0,1099119,trial_4_13_4
7,4,13,5,1.0,1,1,791.0,1099911,trial_4_13_5
7,4,13,6,1.0,9,9,823.0,1100734,trial_4_13_6
7,4,13,7,,5,4,7279.0,1108016,trial_4_13_7
7,4,13,8,,3,7,749.0,1108767,trial_4_13_8
7,4,13,9,,5,6,3326.0,1112093,trial_4_13_9
7,4,14,1,1.0,7,7,1390.0,1122998,trial_4_14_1
7,4,14,2,1.0,9,9,581.0,1123579,trial_4_14_2
7,4,14,3,1.0,5,5,1019.0,1124600,trial_4_14_3
7,4,14,4,1.0,3,3,701.0,1125302,trial_4_14_4
7,4,14,5,1.0,1,1,749.0,1126053,trial_4_14_5
7,4,14,6,,7,2,11391.0,1137447,trial_4_14_6
7,4,14,7,,6,4,172.0,1137619,trial_4_14_7
7,4,14,8,,3,8,54573.0,1192195,trial_4_14_8
8,1,1,1,1.0,1,1,1997.7,16449,trial_1_1_1
8,1,1,2,1.0,3,3,583.665,17034,trial_1_1_2
8,1,1,3,1.0,8,8,627.425,17664,trial_1_1_3
8,1,2,1,1.0,1,1,1814.91,25002,trial_1_2_1
8,1,2,2,1.0,5,5,648.7,25651,trial_1_2_2
8,1,2,3,1.0,2,2,658.08,26311,trial_1_2_3
8,1,2,4,1.0,9,9,562.935,26874,trial_1_2_4
8,1,3,1,1.0,5,5,1077.97,34479,trial_1_3_1
8,1,3,2,1.0,6,6,796.385,35276,trial_1_3_2
8,1,3,3,1.0,9,9,729.59,36007,trial_1_3_3
8,1,3,4,1.0,4,4,674.36,36683,trial_1_3_4
8,1,3,5,1.0,8,8,387.79,37072,trial_1_3_5
8,1,4,1,1.0,9,9,1224.36,45829,trial_1_4_1
8,1,4,2,1.0,3,3,690.675,46522,trial_1_4_2
8,1,4,3,1.0,4,4,623.115,47146,trial_1_4_3
8,1,4,4,1.0,5,5,566.65,47714,trial_1_4_4
8,1,4,5,1.0,6,6,571.865,48287,trial_1_4_5
8,1,4,6,1.0,8,8,536.705,48825,trial_1_4_6
8,1,5,1,1.0,8,8,1657.56,59028,trial_1_5_1
8,1,5,2,1.0,1,1,990.115,60020,trial_1_5_2
8,1,5,3,,9,4,967.785,60989,trial_1_5_3
8,1,5,4,,4,9,918.64,61909,trial_1_5_4
8,1,5,5,1.0,3,3,917.89,62828,trial_1_5_5
8,1,5,6,1.0,2,2,457.61,63287,trial_1_5_6
8,1,5,7,1.0,7,7,245.27,63534,trial_1_5_7
8,1,6,1,1.0,3,3,1613.89,73687,trial_1_6_1
8,1,6,2,,2,6,644.34,74333,trial_1_6_2
8,1,6,3,,1,2,455.545,74790,trial_1_6_3
8,1,6,4,,5,1,489.805,75281,trial_1_6_4
8,1,6,5,,6,5,1625.75,76910,trial_1_6_5
8,1,6,6,1.0,9,9,432.58,77344,trial_1_6_6
8,1,6,7,1.0,8,8,348.9,77694,trial_1_6_7
8,1,7,1,1.0,3,3,1176.38,86404,trial_1_7_1
8,1,7,2,1.0,9,9,553.415,86958,trial_1_7_2
8,1,7,3,1.0,1,1,490.805,87450,trial_1_7_3
8,1,7,4,1.0,6,6,478.84,87930,trial_1_7_4
8,1,7,5,1.0,4,4,663.87,88595,trial_1_7_5
8,1,7,6,1.0,5,5,274.98,88871,trial_1_7_6
8,1,8,1,1.0,9,9,1037.21,98444,trial_1_8_1
8,1,8,2,1.0,1,1,732.93,99178,trial_1_8_2
8,1,8,3,1.0,5,5,820.17,99999,trial_1_8_3
8,1,8,4,1.0,4,4,794.375,100795,trial_1_8_4
8,1,8,5,1.0,7,7,684.27,101480,trial_1_8_5
8,1,8,6,,2,3,656.635,102138,trial_1_8_6
8,1,8,7,,1,2,483.955,102623,trial_1_8_7
8,1,9,1,1.0,1,1,1081.94,112242,trial_1_9_1
8,1,9,2,1.0,8,8,742.71,112986,trial_1_9_2
8,1,9,3,,9,6,857.025,113844,trial_1_9_3
8,1,9,4,1.0,3,3,433.64,114279,trial_1_9_4
8,1,9,5,,6,9,488.91,114769,trial_1_9_5
8,1,9,6,1.0,7,7,279.875,115050,trial_1_9_6
8,1,9,7,1.0,5,5,289.81,115341,trial_1_9_7
8,1,10,1,,1,6,1629.43,126515,trial_1_10_1
8,1,10,2,,6,7,395.01,126911,trial_1_10_2
8,1,10,3,,7,8,398.86,127311,trial_1_10_3
8,1,10,4,,4,1,1465.72,128778,trial_1_10_4
8,1,10,5,,8,5,508.93,129288,trial_1_10_5
8,1,10,6,,5,2,847.995,130137,trial_1_10_6
8,1,10,7,,9,4,624.635,130763,trial_1_10_7
8,1,10,8,,3,9,4298.63,135063,trial_1_10_8
8,1,11,1,1.0,6,6,1593.09,146202,trial_1_11_1
8,1,11,2,1.0,8,8,840.69,147044,trial_1_11_2
8,1,11,3,1.0,5,5,754.09,147800,trial_1_11_3
8,1,11,4,,4,9,672.32,148473,trial_1_11_4
8,1,11,5,,9,4,667.045,149142,trial_1_11_5
8,1,11,6,1.0,2,2,617.63,149760,trial_1_11_6
8,1,11,7,,1,7,292.84,150054,trial_1_11_7
8,1,11,8,,4,1,4109.15,154165,trial_1_11_8
8,1,12,1,1.0,1,1,1483.57,166201,trial_1_12_1
8,1,12,2,1.0,4,4,429.9,166633,trial_1_12_2
8,1,12,3,1.0,8,8,625.48,167260,trial_1_12_3
8,1,12,4,,9,7,2280.75,169542,trial_1_12_4
8,1,12,5,,6,2,4353.37,173896,trial_1_12_5
8,1,12,6,,5,9,1768.12,175666,trial_1_12_6
8,1,12,7,,4,6,1228.61,176896,trial_1_12_7
8,1,12,8,,3,5,1140.58,178038,trial_1_12_8
8,1,12,9,,2,3,327.85,178367,trial_1_12_9
8,1,13,1,1.0,9,9,1512.07,190421,trial_1_13_1
8,1,13,2,,4,8,748.72,191171,trial_1_13_2
8,1,13,3,,8,4,1506.96,192679,trial_1_13_3
8,1,13,4,,1,3,755.86,193436,trial_1_13_4
8,1,13,5,1.0,2,2,1599.84,195037,trial_1_13_5
8,1,13,6,,9,1,686.73,195725,trial_1_13_6
8,1,13,7,,6,5,679.495,196406,trial_1_13_7
8,1,13,8,,8,7,3932.66,200340,trial_1_13_8
8,1,13,9,,7,6,807.22,201149,trial_1_13_9
8,1,14,1,1.0,3,3,1480.93,212174,trial_1_14_1
8,1,14,2,,4,5,645.055,212820,trial_1_14_2
8,1,14,3,,5,4,667.875,213489,trial_1_14_3
8,1,14,4,1.0,8,8,709.875,214200,trial_1_14_4
8,1,14,5,1.0,2,2,920.91,215122,trial_1_14_5
8,1,14,6,1.0,6,6,716.49,215840,trial_1_14_6
8,1,14,7,1.0,7,7,650.06,216491,trial_1_14_7
8,1,14,8,1.0,1,1,609.645,217102,trial_1_14_8
8,2,1,1,1.0,6,6,1681.53,263588,trial_2_1_1
8,2,1,2,1.0,7,7,228.355,263817,trial_2_1_2
8,2,1,3,1.0,2,2,270.92,264089,trial_2_1_3
8,2,2,1,1.0,8,8,1428.8,271041,trial_2_2_1
8,2,2,2,1.0,6,6,336.5,271378,trial_2_2_2
8,2,2,3,1.0,1,1,896.15,272275,trial_2_2_3
8,2,2,4,1.0,7,7,248.23,272524,trial_2_2_4
8,2,3,1,,6,3,2092.55,281143,trial_2_3_1
8,2,3,2,1.0,7,7,306.5,281450,trial_2_3_2
8,2,3,3,1.0,1,1,472.14,281923,trial_2_3_3
8,2,3,4,1.0,9,9,524.35,282448,trial_2_3_4
8,2,3,5,1.0,4,4,452.025,282901,trial_2_3_5
8,2,4,1,,6,4,1590.2,292022,trial_2_4_1
8,2,4,2,,4,6,3627.25,295650,trial_2_4_2
8,2,4,3,,6,1,1247.99,296899,trial_2_4_3
8,2,4,4,,1,5,849.085,297749,trial_2_4_4
8,2,4,5,1.0,7,7,383.565,298133,trial_2_4_5
8,2,4,6,,5,8,946.26,299080,trial_2_4_6
8,2,5,1,1.0,4,4,1702.28,309321,trial_2_5_1
8,2,5,2,1.0,8,8,612.365,309934,trial_2_5_2
8,2,5,3,1.0,1,1,607.95,310543,trial_2_5_3
8,2,5,4,1.0,9,9,653.99,311198,trial_2_5_4
8,2,5,5,1.0,2,2,929.305,312128,trial_2_5_5
8,2,5,6,,7,3,597.02,312726,trial_2_5_6
8,2,5,7,1.0,7,7,2143.49,314870,trial_2_5_7
8,2,6,1,1.0,3,3,1201.69,324605,trial_2_6_1
8,2,6,2,1.0,5,5,559.9,325166,trial_2_6_2
8,2,6,3,1.0,4,4,1320.13,326488,trial_2_6_3
8,2,6,4,,1,7,886.83,327375,trial_2_6_4
8,2,6,5,1.0,9,9,400.585,327777,trial_2_6_5
8,2,6,6,,7,2,340.51,328118,trial_2_6_6
8,2,6,7,,7,8,1243.95,329363,trial_2_6_7
8,2,7,1,1.0,9,9,1615.52,338509,trial_2_7_1
8,2,7,2,1.0,3,3,1322.32,339832,trial_2_7_2
8,2,7,3,1.0,2,2,750.36,340584,trial_2_7_3
8,2,7,4,1.0,4,4,394.69,340979,trial_2_7_4
8,2,7,5,1.0,7,7,516.335,341497,trial_2_7_5
8,2,7,6,1.0,8,8,414.18,341912,trial_2_7_6
8,2,8,1,,6,2,1857.68,352306,trial_2_8_1
8,2,8,2,,7,6,1974.19,354281,trial_2_8_2
8,2,8,3,,7,8,761.53,355044,trial_2_8_3
8,2,8,4,,8,7,1671.26,356716,trial_2_8_4
8,2,8,5,1.0,9,9,409.39,357127,trial_2_8_5
8,2,8,6,1.0,1,1,1010.88,358139,trial_2_8_6
8,2,8,7,1.0,4,4,637.59,358778,trial_2_8_7
8,2,9,1,1.0,8,8,2961.82,370273,trial_2_9_1
8,2,9,2,,7,2,1211.54,371486,trial_2_9_2
8,2,9,3,1.0,9,9,1283.09,372771,trial_2_9_3
8,2,9,4,1.0,6,6,686.39,373458,trial_2_9_4
8,2,9,5,,8,7,1053.05,374512,trial_2_9_5
8,2,9,6,,1,4,553.71,375067,trial_2_9_6
8,2,9,7,,4,5,447.88,375516,trial_2_9_7
8,2,10,1,1.0,9,9,3388.57,388451,trial_2_10_1
8,2,10,2,1.0,1,1,2494.74,390947,trial_2_10_2
8,2,10,3,1.0,7,7,494.725,391443,trial_2_10_3
8,2,10,4,1.0,8,8,1414.81,392859,trial_2_10_4
8,2,10,5,1.0,5,5,3976.28,396837,trial_2_10_5
8,2,10,6,,4,6,1750.99,398590,trial_2_10_6
8,2,10,7,,3,4,1704.42,400296,trial_2_10_7
8,2,10,8,,2,3,232.645,400529,trial_2_10_8
8,2,11,1,,9,7,16848.6,426917,trial_2_11_1
8,2,11,2,,8,2,3835.49,430754,trial_2_11_2
8,2,11,3,,6,9,491.385,431247,trial_2_11_3
8,2,11,4,,5,6,679.66,431928,trial_2_11_4
8,2,11,5,,4,8,440.105,432369,trial_2_11_5
8,2,11,6,,3,5,386.655,432757,trial_2_11_6
8,2,11,7,,2,3,249.93,433008,trial_2_11_7
8,2,11,8,,7,1,587.855,433597,trial_2_11_8
8,2,12,1,,2,7,7405.58,451560,trial_2_12_1
8,2,12,2,,5,1,1007.01,452569,trial_2_12_2
8,2,12,3,1.0,3,3,568.64,453139,trial_2_12_3
8,2,12,4,,8,9,1206.61,454347,trial_2_12_4
8,2,12,5,,4,8,1095.58,455444,trial_2_12_5
8,2,12,6,,5,6,310.93,455756,trial_2_12_6
8,2,12,7,,6,4,416.6,456174,trial_2_12_7
8,2,12,8,,4,5,945.04,457120,trial_2_12_8
8,2,12,9,,1,2,542.545,457664,trial_2_12_9
8,2,13,1,1.0,3,3,1803.44,470012,trial_2_13_1
8,2,13,2,,4,7,586.175,470600,trial_2_13_2
8,2,13,3,,8,4,2851.79,473453,trial_2_13_3
8,2,13,4,,9,5,2021.71,475476,trial_2_13_4
8,2,13,5,,8,9,282.57,475760,trial_2_13_5
8,2,13,6,,2,8,393.74,476155,trial_2_13_6
8,2,13,7,,1,2,349.825,476506,trial_2_13_7
8,2,13,8,,2,6,1331.97,477839,trial_2_13_8
8,2,13,9,,3,1,222.515,478063,trial_2_13_9
8,2,14,1,1.0,5,5,1577.59,489185,trial_2_14_1
8,2,14,2,1.0,6,6,312.58,489499,trial_2_14_2
8,2,14,3,,3,2,651.82,490152,trial_2_14_3
8,2,14,4,1.0,7,7,522.72,490676,trial_2_14_4
8,2,14,5,1.0,8,8,265.42,490943,trial_2_14_5
8,2,14,6,1.0,1,1,227.94,491172,trial_2_14_6
8,2,14,7,1.0,3,3,377.68,491551,trial_2_14_7
8,2,14,8,1.0,9,9,294.935,491847,trial_2_14_8
8,3,1,1,1.0,5,5,1718.46,539388,trial_3_1_1
8,3,1,2,1.0,6,6,217.015,539606,trial_3_1_2
8,3,1,3,1.0,2,2,426.76,540034,trial_3_1_3
8,3,2,1,1.0,4,4,876.22,546433,trial_3_2_1
8,3,2,2,1.0,6,6,298.095,546732,trial_3_2_2
8,3,2,3,1.0,1,1,501.87,547235,trial_3_2_3
8,3,2,4,1.0,9,9,222.96,547459,trial_3_2_4
8,3,3,1,1.0,8,8,2292.82,556278,trial_3_3_1
8,3,3,2,1.0,4,4,491.75,556771,trial_3_3_2
8,3,3,3,1.0,5,5,340.645,557113,trial_3_3_3
8,3,3,4,1.0,9,9,467.01,557581,trial_3_3_4
8,3,3,5,1.0,7,7,314.675,557897,trial_3_3_5
8,3,4,1,1.0,3,3,1513.42,566937,trial_3_4_1
8,3,4,2,1.0,4,4,651.89,567590,trial_3_4_2
8,3,4,3,1.0,5,5,637.05,568228,trial_3_4_3
8,3,4,4,1.0,6,6,295.44,568525,trial_3_4_4
8,3,4,5,1.0,7,7,359.855,568886,trial_3_4_5
8,3,4,6,1.0,9,9,338.11,569225,trial_3_4_6
8,3,5,1,1.0,4,4,1936.52,579696,trial_3_5_1
8,3,5,2,1.0,7,7,628.53,580326,trial_3_5_2
8,3,5,3,,9,3,4233.96,584562,trial_3_5_3
8,3,5,4,1.0,5,5,646.47,585210,trial_3_5_4
8,3,5,5,,1,9,575.85,585787,trial_3_5_5
8,3,5,6,,3,1,662.605,586451,trial_3_5_6
8,3,5,7,1.0,2,2,264.855,586717,trial_3_5_7
8,3,6,1,,4,3,3180.83,598433,trial_3_6_1
8,3,6,2,1.0,2,2,360.33,598795,trial_3_6_2
8,3,6,3,1.0,5,5,430.175,599226,trial_3_6_3
8,3,6,4,1.0,6,6,774.655,600002,trial_3_6_4
8,3,6,5,1.0,7,7,826.515,600829,trial_3_6_5
8,3,6,6,1.0,4,4,739.86,601570,trial_3_6_6
8,3,6,7,1.0,1,1,302.945,601874,trial_3_6_7
8,3,7,1,1.0,5,5,1703.55,611102,trial_3_7_1
8,3,7,2,1.0,9,9,519.795,611623,trial_3_7_2
8,3,7,3,1.0,7,7,491.335,612115,trial_3_7_3
8,3,7,4,1.0,4,4,694.53,612811,trial_3_7_4
8,3,7,5,1.0,8,8,566.705,613379,trial_3_7_5
8,3,7,6,1.0,1,1,344.7,613725,trial_3_7_6
8,3,8,1,1.0,3,3,1431.0,623693,trial_3_8_1
8,3,8,2,1.0,1,1,325.135,624019,trial_3_8_2
8,3,8,3,,8,7,2161.73,626182,trial_3_8_3
8,3,8,4,,8,5,1180.72,627364,trial_3_8_4
8,3,8,5,,5,8,232.645,627598,trial_3_8_5
8,3,8,6,,7,2,492.785,628092,trial_3_8_6
8,3,8,7,,2,6,624.2,628717,trial_3_8_7
8,3,9,1,1.0,6,6,2643.06,639895,trial_3_9_1
8,3,9,2,1.0,9,9,569.605,640466,trial_3_9_2
8,3,9,3,,5,2,1203.83,641671,trial_3_9_3
8,3,9,4,,3,1,379.525,642052,trial_3_9_4
8,3,9,5,,2,5,1197.82,643251,trial_3_9_5
8,3,9,6,,1,3,268.62,643521,trial_3_9_6
8,3,9,7,1.0,8,8,984.935,644507,trial_3_9_7
8,3,10,1,1.0,9,9,3262.55,657313,trial_3_10_1
8,3,10,2,,3,6,784.525,658099,trial_3_10_2
8,3,10,3,,1,8,866.145,658967,trial_3_10_3
8,3,10,4,1.0,5,5,724.63,659692,trial_3_10_4
8,3,10,5,,1,2,3096.11,662790,trial_3_10_5
8,3,10,6,,8,3,857.035,663648,trial_3_10_6
8,3,10,7,,7,1,133.735,663784,trial_3_10_7
8,3,10,8,,2,7,1272.81,665058,trial_3_10_8
8,3,11,1,1.0,4,4,3445.55,678041,trial_3_11_1
8,3,11,2,1.0,2,2,616.045,678659,trial_3_11_2
8,3,11,3,1.0,3,3,454.69,679115,trial_3_11_3
8,3,11,4,,9,6,1373.73,680491,trial_3_11_4
8,3,11,5,,1,5,1313.12,681805,trial_3_11_5
8,3,11,6,,7,9,905.45,682712,trial_3_11_6
8,3,11,7,1.0,8,8,514.67,683228,trial_3_11_7
8,3,11,8,,8,7,415.71,683645,trial_3_11_8
8,3,12,1,1.0,7,7,1611.4,695808,trial_3_12_1
8,3,12,2,,4,2,1162.68,696972,trial_3_12_2
8,3,12,3,,9,4,2055.64,699029,trial_3_12_3
8,3,12,4,,8,5,351.56,699382,trial_3_12_4
8,3,12,5,1.0,6,6,4543.51,703926,trial_3_12_5
8,3,12,6,,7,8,283.44,704212,trial_3_12_6
8,3,12,7,1.0,1,1,373.065,704586,trial_3_12_7
8,3,12,8,,1,9,573.78,705161,trial_3_12_8
8,3,12,9,,2,3,726.98,705889,trial_3_12_9
8,3,13,1,1.0,8,8,12632.1,729081,trial_3_13_1
8,3,13,2,,5,6,1171.42,730255,trial_3_13_2
8,3,13,3,,9,3,6196.96,736453,trial_3_13_3
8,3,13,4,,9,5,185.225,736641,trial_3_13_4
8,3,13,5,1.0,9,9,189.58,736832,trial_3_13_5
8,3,13,6,,9,4,228.75,737062,trial_3_13_6
8,3,13,7,,9,1,343.7,737407,trial_3_13_7
8,3,13,8,,9,2,190.71,737599,trial_3_13_8
8,3,13,9,,9,7,342.68,737943,trial_3_13_9
8,3,14,1,1.0,9,9,2349.39,749829,trial_3_14_1
8,3,14,2,,8,7,259.33,750090,trial_3_14_2
8,3,14,3,1.0,1,1,2285.73,752377,trial_3_14_3
8,3,14,4,1.0,8,8,294.895,752674,trial_3_14_4
8,3,14,5,1.0,4,4,796.59,753472,trial_3_14_5
8,3,14,6,1.0,2,2,396.08,753869,trial_3_14_6
8,3,14,7,,8,3,1797.19,755668,trial_3_14_7
8,3,14,8,,8,6,446.46,756116,trial_3_14_8
8,4,1,1,,3,2,2345.2,801978,trial_4_1_1
8,4,1,2,1.0,6,6,594.85,802574,trial_4_1_2
8,4,1,3,1.0,9,9,570.81,803146,trial_4_1_3
8,4,2,1,1.0,3,3,996.57,809664,trial_4_2_1
8,4,2,2,1.0,7,7,528.735,810194,trial_4_2_2
8,4,2,3,1.0,2,2,597.675,810793,trial_4_2_3
8,4,2,4,1.0,4,4,346.87,811141,trial_4_2_4
8,4,3,1,1.0,8,8,1353.17,819019,trial_4_3_1
8,4,3,2,1.0,9,9,274.755,819295,trial_4_3_2
8,4,3,3,1.0,3,3,426.735,819723,trial_4_3_3
8,4,3,4,1.0,2,2,205.88,819930,trial_4_3_4
8,4,3,5,1.0,5,5,541.22,820473,trial_4_3_5
8,4,4,1,1.0,5,5,2263.65,830268,trial_4_4_1
8,4,4,2,1.0,8,8,524.43,830794,trial_4_4_2
8,4,4,3,1.0,4,4,1045.85,831841,trial_4_4_3
8,4,4,4,1.0,3,3,247.72,832090,trial_4_4_4
8,4,4,5,1.0,9,9,875.815,832967,trial_4_4_5
8,4,4,6,,1,2,322.67,833291,trial_4_4_6
8,4,5,1,1.0,9,9,1402.76,843230,trial_4_5_1
8,4,5,2,1.0,1,1,836.095,844067,trial_4_5_2
8,4,5,3,1.0,2,2,2140.84,846209,trial_4_5_3
8,4,5,4,1.0,3,3,349.755,846560,trial_4_5_4
8,4,5,5,1.0,8,8,1678.9,848240,trial_4_5_5
8,4,5,6,,1,7,207.57,848449,trial_4_5_6
8,4,5,7,,3,6,1125.02,849576,trial_4_5_7
8,4,6,1,1.0,9,9,1090.82,859202,trial_4_6_1
8,4,6,2,1.0,6,6,638.29,859841,trial_4_6_2
8,4,6,3,1.0,2,2,547.07,860390,trial_4_6_3
8,4,6,4,1.0,1,1,746.47,861137,trial_4_6_4
8,4,6,5,1.0,8,8,701.845,861841,trial_4_6_5
8,4,6,6,1.0,5,5,789.555,862631,trial_4_6_6
8,4,6,7,1.0,3,3,575.945,863209,trial_4_6_7
8,4,7,1,1.0,5,5,1979.26,872722,trial_4_7_1
8,4,7,2,1.0,2,2,633.585,873357,trial_4_7_2
8,4,7,3,1.0,3,3,265.805,873624,trial_4_7_3
8,4,7,4,1.0,1,1,307.86,873933,trial_4_7_4
8,4,7,5,1.0,8,8,992.735,874927,trial_4_7_5
8,4,7,6,1.0,9,9,280.775,875209,trial_4_7_6
8,4,8,1,1.0,9,9,1532.11,885282,trial_4_8_1
8,4,8,2,1.0,6,6,690.355,885974,trial_4_8_2
8,4,8,3,1.0,5,5,1096.92,887072,trial_4_8_3
8,4,8,4,1.0,2,2,1207.41,888281,trial_4_8_4
8,4,8,5,,9,1,1241.67,889524,trial_4_8_5
8,4,8,6,,1,3,844.755,890370,trial_4_8_6
8,4,8,7,,3,8,1024.99,891396,trial_4_8_7
8,4,9,1,1.0,7,7,2350.53,902289,trial_4_9_1
8,4,9,2,1.0,8,8,292.595,902583,trial_4_9_2
8,4,9,3,,6,3,8821.48,911406,trial_4_9_3
8,4,9,4,1.0,4,4,208.765,911616,trial_4_9_4
8,4,9,5,,1,6,519.795,912137,trial_4_9_5
8,4,9,6,,6,1,796.09,912935,trial_4_9_6
8,4,9,7,1.0,9,9,415.29,913351,trial_4_9_7
8,4,10,1,,4,3,3317.51,926215,trial_4_10_1
8,4,10,2,,3,4,1664.68,927882,trial_4_10_2
8,4,10,3,,4,6,288.175,928171,trial_4_10_3
8,4,10,4,,6,8,855.695,929028,trial_4_10_4
8,4,10,5,,8,1,752.15,929782,trial_4_10_5
8,4,10,6,,1,2,1003.51,930786,trial_4_10_6
8,4,10,7,,2,9,649.05,931437,trial_4_10_7
8,4,10,8,,9,7,626.92,932065,trial_4_10_8
8,4,11,1,1.0,3,3,1446.69,943052,trial_4_11_1
8,4,11,2,1.0,5,5,327.305,943380,trial_4_11_2
8,4,11,3,1.0,1,1,721.675,944103,trial_4_11_3
8,4,11,4,1.0,2,2,245.28,944350,trial_4_11_4
8,4,11,5,,6,7,800.62,945152,trial_4_11_5
8,4,11,6,1.0,8,8,281.945,945435,trial_4_11_6
8,4,11,7,,1,6,570.41,946007,trial_4_11_7
8,4,11,8,,2,9,248.765,946257,trial_4_11_8
8,4,12,1,1.0,3,3,1205.77,958003,trial_4_12_1
8,4,12,2,1.0,1,1,365.87,958371,trial_4_12_2
8,4,12,3,1.0,6,6,1663.92,960036,trial_4_12_3
8,4,12,4,1.0,4,4,716.9,960754,trial_4_12_4
8,4,12,5,,9,8,2081.77,962837,trial_4_12_5
8,4,12,6,,1,9,521.555,963360,trial_4_12_6
8,4,12,7,,2,7,267.765,963629,trial_4_12_7
8,4,12,8,,3,5,239.735,963870,trial_4_12_8
8,4,12,9,,4,2,709.865,964581,trial_4_12_9
8,4,13,1,1.0,9,9,2542.4,977681,trial_4_13_1
8,4,13,2,1.0,4,4,1055.51,978738,trial_4_13_2
8,4,13,3,,6,1,559.805,979299,trial_4_13_3
8,4,13,4,,1,5,518.84,979820,trial_4_13_4
8,4,13,5,,2,8,406.125,980227,trial_4_13_5
8,4,13,6,1.0,3,3,346.625,980575,trial_4_13_6
8,4,13,7,,4,7,608.765,981185,trial_4_13_7
8,4,13,8,,7,6,1859.81,983046,trial_4_13_8
8,4,13,9,,8,2,332.595,983380,trial_4_13_9
8,4,14,1,1.0,9,9,1459.93,994377,trial_4_14_1
8,4,14,2,1.0,4,4,1300.81,995679,trial_4_14_2
8,4,14,3,,6,5,1185.58,996866,trial_4_14_3
8,4,14,4,1.0,3,3,504.575,997372,trial_4_14_4
8,4,14,5,,8,7,3246.89,1000620,trial_4_14_5
8,4,14,6,,9,8,356.895,1000979,trial_4_14_6
8,4,14,7,1.0,1,1,1101.56,1002082,trial_4_14_7
8,4,14,8,1.0,6,6,1392.28,1003475,trial_4_14_8
9,1,1,1,1.0,3,3,1695.16,54834,trial_1_1_1
9,1,1,2,1.0,7,7,588.725,55426,trial_1_1_2
9,1,1,3,1.0,5,5,541.44,55969,trial_1_1_3
9,1,2,1,1.0,5,5,1008.89,62489,trial_1_2_1
9,1,2,2,1.0,2,2,430.535,62921,trial_1_2_2
9,1,2,3,1.0,3,3,830.65,63753,trial_1_2_3
9,1,2,4,1.0,8,8,446.56,64201,trial_1_2_4
9,1,3,1,1.0,5,5,1077.83,71793,trial_1_3_1
9,1,3,2,1.0,8,8,486.445,72280,trial_1_3_2
9,1,3,3,1.0,7,7,423.07,72704,trial_1_3_3
9,1,3,4,1.0,1,1,711.42,73417,trial_1_3_4
9,1,3,5,1.0,2,2,294.58,73712,trial_1_3_5
9,1,4,1,1.0,4,4,846.04,82074,trial_1_4_1
9,1,4,2,1.0,5,5,436.68,82512,trial_1_4_2
9,1,4,3,1.0,6,6,398.735,82912,trial_1_4_3
9,1,4,4,1.0,9,9,526.62,83440,trial_1_4_4
9,1,4,5,1.0,8,8,782.59,84224,trial_1_4_5
9,1,4,6,1.0,1,1,478.6,84704,trial_1_4_6
9,1,5,1,1.0,1,1,1021.15,94241,trial_1_5_1
9,1,5,2,1.0,3,3,1573.4,95816,trial_1_5_2
9,1,5,3,1.0,6,6,599.385,96416,trial_1_5_3
9,1,5,4,1.0,5,5,1406.66,97824,trial_1_5_4
9,1,5,5,1.0,7,7,438.575,98264,trial_1_5_5
9,1,5,6,1.0,8,8,302.25,98568,trial_1_5_6
9,1,5,7,1.0,2,2,1431.62,100000,trial_1_5_7
9,1,6,1,1.0,4,4,3333.34,111849,trial_1_6_1
9,1,6,2,,5,6,541.525,112392,trial_1_6_2
9,1,6,3,,1,7,630.655,113024,trial_1_6_3
9,1,6,4,1.0,9,9,910.605,113936,trial_1_6_4
9,1,6,5,1.0,8,8,556.145,114496,trial_1_6_5
9,1,6,6,,5,1,598.675,115096,trial_1_6_6
9,1,6,7,,1,5,518.605,115616,trial_1_6_7
9,1,7,1,1.0,9,9,1264.02,124393,trial_1_7_1
9,1,7,2,1.0,2,2,645.795,125040,trial_1_7_2
9,1,7,3,1.0,3,3,430.64,125472,trial_1_7_3
9,1,7,4,1.0,6,6,462.78,125936,trial_1_7_4
9,1,7,5,1.0,7,7,446.915,126384,trial_1_7_5
9,1,7,6,1.0,1,1,390.505,126776,trial_1_7_6
9,1,8,1,1.0,3,3,1603.43,136897,trial_1_8_1
9,1,8,2,1.0,9,9,709.815,137608,trial_1_8_2
9,1,8,3,1.0,2,2,1454.67,139064,trial_1_8_3
9,1,8,4,1.0,6,6,798.71,139864,trial_1_8_4
9,1,8,5,1.0,4,4,598.72,140464,trial_1_8_5
9,1,8,6,1.0,5,5,502.7,140968,trial_1_8_6
9,1,8,7,,2,8,638.37,141608,trial_1_8_7
9,1,9,1,1.0,9,9,1792.24,151912,trial_1_9_1
9,1,9,2,,6,5,1438.54,153352,trial_1_9_2
9,1,9,3,1.0,3,3,871.145,154223,trial_1_9_3
9,1,9,4,1.0,2,2,511.05,154735,trial_1_9_4
9,1,9,5,1.0,6,6,591.24,155327,trial_1_9_5
9,1,9,6,1.0,4,4,423.22,155752,trial_1_9_6
9,1,9,7,1.0,1,1,431.105,156183,trial_1_9_7
9,1,10,1,,4,6,4294.67,170000,trial_1_10_1
9,1,10,2,1.0,5,5,462.205,170463,trial_1_10_2
9,1,10,3,,1,7,367.19,170831,trial_1_10_3
9,1,10,4,,6,4,791.55,171624,trial_1_10_4
9,1,10,5,,5,1,1670.63,173296,trial_1_10_5
9,1,10,6,,7,9,726.825,174024,trial_1_10_6
9,1,10,7,1.0,2,2,782.695,174808,trial_1_10_7
9,1,10,8,1.0,8,8,494.59,175304,trial_1_10_8
9,1,11,1,1.0,7,7,1028.61,185849,trial_1_11_1
9,1,11,2,1.0,1,1,501.855,186352,trial_1_11_2
9,1,11,3,1.0,2,2,358.725,186712,trial_1_11_3
9,1,11,4,1.0,9,9,750.71,187464,trial_1_11_4
9,1,11,5,1.0,6,6,830.76,188296,trial_1_11_5
9,1,11,6,1.0,8,8,534.655,188832,trial_1_11_6
9,1,11,7,,1,3,1292.99,190128,trial_1_11_7
9,1,11,8,,2,4,86.695,190216,trial_1_11_8
9,1,12,1,1.0,7,7,1811.0,202545,trial_1_12_1
9,1,12,2,1.0,2,2,621.68,203168,trial_1_12_2
9,1,12,3,1.0,5,5,654.685,203824,trial_1_12_3
9,1,12,4,1.0,6,6,486.675,204312,trial_1_12_4
9,1,12,5,1.0,9,9,662.755,204976,trial_1_12_5
9,1,12,6,1.0,4,4,926.355,205903,trial_1_12_6
9,1,12,7,1.0,3,3,687.46,206592,trial_1_12_7
9,1,12,8,1.0,8,8,374.695,206968,trial_1_12_8
9,1,12,9,1.0,1,1,1998.74,208968,trial_1_12_9
9,1,13,1,,6,3,2946.62,222432,trial_1_13_1
9,1,13,2,,7,1,453.13,222887,trial_1_13_2
9,1,13,3,,5,7,598.655,223487,trial_1_13_3
9,1,13,4,,3,2,702.75,224191,trial_1_13_4
9,1,13,5,,4,8,574.68,224767,trial_1_13_5
9,1,13,6,1.0,9,9,574.76,225343,trial_1_13_6
9,1,13,7,,1,5,702.695,226048,trial_1_13_7
9,1,13,8,,2,4,582.715,226632,trial_1_13_8
9,1,13,9,,3,6,686.5,227319,trial_1_13_9
9,1,14,1,1.0,9,9,1876.19,238712,trial_1_14_1
9,1,14,2,1.0,1,1,525.645,239239,trial_1_14_2
9,1,14,3,1.0,6,6,822.66,240063,trial_1_14_3
9,1,14,4,1.0,2,2,550.745,240615,trial_1_14_4
9,1,14,5,1.0,7,7,510.61,241127,trial_1_14_5
9,1,14,6,1.0,4,4,470.74,241599,trial_1_14_6
9,1,14,7,,1,8,758.705,242359,trial_1_14_7
9,1,14,8,1.0,5,5,158.985,242520,trial_1_14_8
9,2,1,1,1.0,4,4,2032.18,282183,trial_2_1_1
9,2,1,2,1.0,7,7,406.36,282591,trial_2_1_2
9,2,1,3,1.0,2,2,286.51,282879,trial_2_1_3
9,2,2,1,1.0,2,2,1178.72,289568,trial_2_2_1
9,2,2,2,1.0,4,4,357.62,289927,trial_2_2_2
9,2,2,3,1.0,6,6,318.52,290247,trial_2_2_3
9,2,2,4,1.0,7,7,238.88,290487,trial_2_2_4
9,2,3,1,1.0,9,9,1224.22,298223,trial_2_3_1
9,2,3,2,1.0,4,4,558.475,298783,trial_2_3_2
9,2,3,3,1.0,5,5,702.735,299487,trial_2_3_3
9,2,3,4,1.0,3,3,807.695,300296,trial_2_3_4
9,2,3,5,1.0,6,6,509.51,300807,trial_2_3_5
9,2,4,1,1.0,8,8,775.58,309095,trial_2_4_1
9,2,4,2,1.0,7,7,742.695,309839,trial_2_4_2
9,2,4,3,1.0,4,4,655.59,310496,trial_2_4_3
9,2,4,4,1.0,1,1,557.365,311054,trial_2_4_4
9,2,4,5,1.0,6,6,615.21,311670,trial_2_4_5
9,2,4,6,1.0,9,9,462.92,312134,trial_2_4_6
9,2,5,1,,7,5,1783.81,322432,trial_2_5_1
9,2,5,2,1.0,7,7,1133.8,323567,trial_2_5_2
9,2,5,3,1.0,4,4,854.65,324423,trial_2_5_3
9,2,5,4,,9,8,1246.65,325671,trial_2_5_4
9,2,5,5,1.0,2,2,574.44,326247,trial_2_5_5
9,2,5,6,1.0,6,6,1542.79,327791,trial_2_5_6
9,2,5,7,,1,9,1934.73,329727,trial_2_5_7
9,2,6,1,1.0,3,3,2941.98,341184,trial_2_6_1
9,2,6,2,1.0,6,6,524.75,341711,trial_2_6_2
9,2,6,3,1.0,8,8,478.34,342190,trial_2_6_3
9,2,6,4,1.0,9,9,1007.51,343199,trial_2_6_4
9,2,6,5,1.0,7,7,1406.59,344607,trial_2_6_5
9,2,6,6,1.0,4,4,414.57,345023,trial_2_6_6
9,2,6,7,1.0,1,1,350.665,345375,trial_2_6_7
9,2,7,1,1.0,2,2,2085.07,354975,trial_2_7_1
9,2,7,2,1.0,1,1,358.5,355334,trial_2_7_2
9,2,7,3,1.0,9,9,1303.38,356639,trial_2_7_3
9,2,7,4,1.0,8,8,638.64,357278,trial_2_7_4
9,2,7,5,1.0,7,7,534.605,357814,trial_2_7_5
9,2,7,6,1.0,4,4,574.74,358390,trial_2_7_6
9,2,8,1,1.0,5,5,4662.51,371567,trial_2_8_1
9,2,8,2,1.0,1,1,572.945,372142,trial_2_8_2
9,2,8,3,1.0,4,4,918.64,373062,trial_2_8_3
9,2,8,4,,9,7,918.45,373982,trial_2_8_4
9,2,8,5,,7,9,2950.91,376934,trial_2_8_5
9,2,8,6,,3,6,582.035,377518,trial_2_8_6
9,2,8,7,1.0,8,8,382.545,377902,trial_2_8_7
9,2,9,1,1.0,8,8,1669.52,388087,trial_2_9_1
9,2,9,2,,7,6,525.85,388615,trial_2_9_2
9,2,9,3,1.0,5,5,614.045,389230,trial_2_9_3
9,2,9,4,1.0,4,4,790.56,390022,trial_2_9_4
9,2,9,5,1.0,2,2,1878.61,391902,trial_2_9_5
9,2,9,6,1.0,9,9,622.705,392526,trial_2_9_6
9,2,9,7,,3,7,2438.67,394966,trial_2_9_7
9,2,10,1,1.0,5,5,1915.69,406399,trial_2_10_1
9,2,10,2,1.0,3,3,525.285,406926,trial_2_10_2
9,2,10,3,1.0,4,4,359.145,407286,trial_2_10_3
9,2,10,4,,8,9,1271.39,408558,trial_2_10_4
9,2,10,5,,9,8,398.615,408958,trial_2_10_5
9,2,10,6,,6,7,759.35,409719,trial_2_10_6
9,2,10,7,1.0,1,1,3221.5,412942,trial_2_10_7
9,2,10,8,,5,6,173.72,413118,trial_2_10_8
9,2,11,1,1.0,4,4,1171.15,423807,trial_2_11_1
9,2,11,2,1.0,5,5,333.58,424142,trial_2_11_2
9,2,11,3,1.0,1,1,542.735,424686,trial_2_11_3
9,2,11,4,1.0,9,9,742.705,425430,trial_2_11_4
9,2,11,5,,3,6,694.38,426126,trial_2_11_5
9,2,11,6,1.0,8,8,622.99,426750,trial_2_11_6
9,2,11,7,1.0,3,3,774.48,427526,trial_2_11_7
9,2,11,8,1.0,2,2,326.62,427854,trial_2_11_8
9,2,12,1,1.0,6,6,2193.56,440567,trial_2_12_1
9,2,12,2,1.0,9,9,525.755,441094,trial_2_12_2
9,2,12,3,1.0,5,5,1046.27,442141,trial_2_12_3
9,2,12,4,1.0,4,4,1719.09,443861,trial_2_12_4
9,2,12,5,,6,8,1279.01,445141,trial_2_12_5
9,2,12,6,,7,1,479.13,445621,trial_2_12_6
9,2,12,7,1.0,3,3,1375.45,446998,trial_2_12_7
9,2,12,8,,2,7,662.7,447662,trial_2_12_8
9,2,12,9,,5,2,1270.62,448934,trial_2_12_9
9,2,13,1,1.0,7,7,3216.35,462671,trial_2_13_1
9,2,13,2,,8,5,397.605,463070,trial_2_13_2
9,2,13,3,1.0,8,8,2198.31,465269,trial_2_13_3
9,2,13,4,,5,1,2439.47,467710,trial_2_13_4
9,2,13,5,,3,6,702.525,468413,trial_2_13_5
9,2,13,6,1.0,2,2,654.65,469070,trial_2_13_6
9,2,13,7,,3,4,734.27,469805,trial_2_13_7
9,2,13,8,1.0,9,9,1071.44,470878,trial_2_13_8
9,2,13,9,1.0,3,3,646.625,471525,trial_2_13_9
9,2,14,1,1.0,7,7,2547.19,483590,trial_2_14_1
9,2,14,2,,8,5,621.615,484213,trial_2_14_2
9,2,14,3,1.0,3,3,1526.68,485741,trial_2_14_3
9,2,14,4,1.0,8,8,1182.81,486925,trial_2_14_4
9,2,14,5,1.0,1,1,902.55,487829,trial_2_14_5
9,2,14,6,1.0,4,4,558.65,488389,trial_2_14_6
9,2,14,7,,3,9,2478.6,490869,trial_2_14_7
9,2,14,8,,4,6,526.005,491397,trial_2_14_8
9,3,1,1,1.0,8,8,2896.7,528598,trial_3_1_1
9,3,1,2,1.0,9,9,438.28,529037,trial_3_1_2
9,3,1,3,1.0,2,2,294.635,529333,trial_3_1_3
9,3,2,1,1.0,4,4,834.14,535678,trial_3_2_1
9,3,2,2,1.0,5,5,509.595,536189,trial_3_2_2
9,3,2,3,1.0,2,2,486.65,536677,trial_3_2_3
9,3,2,4,1.0,8,8,382.705,537061,trial_3_2_4
9,3,3,1,1.0,5,5,1937.94,545509,trial_3_3_1
9,3,3,2,1.0,9,9,567.755,546078,trial_3_3_2
9,3,3,3,1.0,3,3,413.61,546493,trial_3_3_3
9,3,3,4,1.0,2,2,486.705,546981,trial_3_3_4
9,3,3,5,1.0,8,8,294.53,547277,trial_3_3_5
9,3,4,1,,7,5,2443.52,557237,trial_3_4_1
9,3,4,2,,8,7,2030.04,559269,trial_3_4_2
9,3,4,3,1.0,9,9,1439.16,560709,trial_3_4_3
9,3,4,4,,5,3,5911.02,566621,trial_3_4_4
9,3,4,5,,3,2,398.79,567021,trial_3_4_5
9,3,4,6,1.0,4,4,215.17,567237,trial_3_4_6
9,3,5,1,1.0,1,1,4268.49,580022,trial_3_5_1
9,3,5,2,1.0,5,5,988.985,581013,trial_3_5_2
9,3,5,3,1.0,6,6,510.63,581525,trial_3_5_3
9,3,5,4,1.0,9,9,1190.55,582717,trial_3_5_4
9,3,5,5,1.0,7,7,1750.24,584469,trial_3_5_5
9,3,5,6,1.0,8,8,718.595,585189,trial_3_5_6
9,3,5,7,1.0,3,3,910.69,586101,trial_3_5_7
9,3,6,1,1.0,5,5,2565.3,597182,trial_3_6_1
9,3,6,2,1.0,9,9,716.965,597901,trial_3_6_2
9,3,6,3,1.0,6,6,814.65,598717,trial_3_6_3
9,3,6,4,1.0,2,2,750.58,599469,trial_3_6_4
9,3,6,5,1.0,8,8,670.615,600141,trial_3_6_5
9,3,6,6,1.0,1,1,518.575,600661,trial_3_6_6
9,3,6,7,1.0,4,4,374.43,601036,trial_3_6_7
9,3,7,1,1.0,8,8,1583.62,610134,trial_3_7_1
9,3,7,2,1.0,9,9,357.485,610493,trial_3_7_2
9,3,7,3,1.0,1,1,430.655,610925,trial_3_7_3
9,3,7,4,1.0,4,4,638.585,611565,trial_3_7_4
9,3,7,5,1.0,6,6,798.58,612365,trial_3_7_5
9,3,7,6,1.0,5,5,430.63,612797,trial_3_7_6
9,3,8,1,1.0,3,3,1579.9,622893,trial_3_8_1
9,3,8,2,1.0,8,8,541.57,623436,trial_3_8_2
9,3,8,3,1.0,1,1,677.65,624117,trial_3_8_3
9,3,8,4,1.0,7,7,1030.51,625148,trial_3_8_4
9,3,8,5,1.0,9,9,510.61,625660,trial_3_8_5
9,3,8,6,1.0,2,2,510.615,626172,trial_3_8_6
9,3,8,7,1.0,6,6,510.655,626684,trial_3_8_7
9,3,9,1,1.0,9,9,2397.07,637597,trial_3_9_1
9,3,9,2,1.0,6,6,389.625,637988,trial_3_9_2
9,3,9,3,1.0,7,7,406.655,638396,trial_3_9_3
9,3,9,4,1.0,8,8,614.635,639012,trial_3_9_4
9,3,9,5,1.0,4,4,3110.58,642124,trial_3_9_5
9,3,9,6,1.0,2,2,326.615,642452,trial_3_9_6
9,3,9,7,1.0,3,3,230.02,642684,trial_3_9_7
9,3,10,1,1.0,6,6,1085.77,653285,trial_3_10_1
9,3,10,2,1.0,1,1,549.65,653836,trial_3_10_2
9,3,10,3,1.0,5,5,318.555,654156,trial_3_10_3
9,3,10,4,1.0,2,2,982.765,655140,trial_3_10_4
9,3,10,5,1.0,3,3,670.54,655812,trial_3_10_5
9,3,10,6,,8,9,854.625,656668,trial_3_10_6
9,3,10,7,1.0,8,8,2117.78,658788,trial_3_10_7
9,3,10,8,1.0,7,7,222.36,659012,trial_3_10_8
9,3,11,1,,6,7,3108.44,671637,trial_3_11_1
9,3,11,2,,5,4,3268.86,674908,trial_3_11_2
9,3,11,3,1.0,3,3,1045.9,675956,trial_3_11_3
9,3,11,4,,8,6,878.635,676836,trial_3_11_4
9,3,11,5,1.0,1,1,406.57,677244,trial_3_11_5
9,3,11,6,1.0,2,2,318.54,677564,trial_3_11_6
9,3,11,7,,9,8,574.68,678140,trial_3_11_7
9,3,11,8,,8,5,942.725,679084,trial_3_11_8
9,3,12,1,1.0,2,2,3114.49,692717,trial_3_12_1
9,3,12,2,1.0,8,8,252.55,692971,trial_3_12_2
9,3,12,3,1.0,9,9,231.255,693204,trial_3_12_3
9,3,12,4,1.0,1,1,782.515,693988,trial_3_12_4
9,3,12,5,1.0,3,3,423.335,694412,trial_3_12_5
9,3,12,6,1.0,4,4,654.675,695068,trial_3_12_6
9,3,12,7,,9,5,5694.18,700764,trial_3_12_7
9,3,12,8,,2,6,517.605,701283,trial_3_12_8
9,3,12,9,1.0,7,7,335.315,701620,trial_3_12_9
9,3,13,1,1.0,8,8,3703.2,715845,trial_3_13_1
9,3,13,2,,3,2,292.69,716140,trial_3_13_2
9,3,13,3,1.0,7,7,294.55,716436,trial_3_13_3
9,3,13,4,1.0,1,1,1470.74,717908,trial_3_13_4
9,3,13,5,,5,6,622.69,718532,trial_3_13_5
9,3,13,6,,4,5,918.565,719452,trial_3_13_6
9,3,13,7,,3,4,2870.61,722324,trial_3_13_7
9,3,13,8,,9,3,294.505,722620,trial_3_13_8
9,3,13,9,,1,9,1406.77,724028,trial_3_13_9
9,3,14,1,,2,3,2793.69,736341,trial_3_14_1
9,3,14,2,1.0,1,1,349.54,736691,trial_3_14_2
9,3,14,3,1.0,5,5,566.59,737260,trial_3_14_3
9,3,14,4,,9,2,662.05,737923,trial_3_14_4
9,3,14,5,,3,4,591.435,738516,trial_3_14_5
9,3,14,6,1.0,7,7,742.535,739260,trial_3_14_6
9,3,14,7,1.0,9,9,4854.13,744115,trial_3_14_7
9,3,14,8,1.0,8,8,342.49,744459,trial_3_14_8
9,4,1,1,,4,5,1216.53,786692,trial_4_1_1
9,4,1,2,,5,4,397.61,787091,trial_4_1_2
9,4,1,3,1.0,7,7,406.63,787499,trial_4_1_3
9,4,2,1,1.0,1,1,1736.91,794747,trial_4_2_1
9,4,2,2,1.0,4,4,382.61,795131,trial_4_2_2
9,4,2,3,1.0,7,7,566.55,795699,trial_4_2_3
9,4,2,4,1.0,3,3,590.655,796291,trial_4_2_4
9,4,3,1,1.0,6,6,1032.36,803836,trial_4_3_1
9,4,3,2,1.0,3,3,997.595,804835,trial_4_3_2
9,4,3,3,1.0,2,2,462.62,805299,trial_4_3_3
9,4,3,4,1.0,9,9,1158.65,806459,trial_4_3_4
9,4,3,5,1.0,5,5,1101.52,807563,trial_4_3_5
9,4,4,1,1.0,7,7,2279.14,817356,trial_4_4_1
9,4,4,2,1.0,3,3,805.665,818163,trial_4_4_2
9,4,4,3,1.0,8,8,670.595,818835,trial_4_4_3
9,4,4,4,,6,9,3014.67,821851,trial_4_4_4
9,4,4,5,1.0,1,1,277.71,822130,trial_4_4_5
9,4,4,6,1.0,2,2,270.72,822403,trial_4_4_6
9,4,5,1,,8,3,2075.45,832996,trial_4_5_1
9,4,5,2,,6,5,2221.49,835219,trial_4_5_2
9,4,5,3,1.0,8,8,1454.57,836675,trial_4_5_3
9,4,5,4,,7,6,2854.57,839531,trial_4_5_4
9,4,5,5,,1,7,413.93,839947,trial_4_5_5
9,4,5,6,1.0,2,2,350.45,840298,trial_4_5_6
9,4,5,7,,3,1,462.74,840763,trial_4_5_7
9,4,6,1,1.0,9,9,1251.14,850532,trial_4_6_1
9,4,6,2,1.0,1,1,517.635,851051,trial_4_6_2
9,4,6,3,1.0,7,7,494.61,851547,trial_4_6_3
9,4,6,4,1.0,5,5,486.515,852035,trial_4_6_4
9,4,6,5,1.0,4,4,646.64,852683,trial_4_6_5
9,4,6,6,1.0,2,2,606.39,853290,trial_4_6_6
9,4,6,7,1.0,6,6,1566.8,854859,trial_4_6_7
9,4,7,1,1.0,8,8,1567.16,863939,trial_4_7_1
9,4,7,2,1.0,1,1,613.57,864554,trial_4_7_2
9,4,7,3,1.0,2,2,326.565,864882,trial_4_7_3
9,4,7,4,1.0,6,6,590.645,865475,trial_4_7_4
9,4,7,5,1.0,3,3,478.545,865954,trial_4_7_5
9,4,7,6,1.0,9,9,286.56,866242,trial_4_7_6
9,4,8,1,1.0,2,2,949.735,875707,trial_4_8_1
9,4,8,2,1.0,1,1,317.49,876026,trial_4_8_2
9,4,8,3,1.0,6,6,414.665,876442,trial_4_8_3
9,4,8,4,1.0,7,7,869.645,877314,trial_4_8_4
9,4,8,5,1.0,5,5,542.615,877858,trial_4_8_5
9,4,8,6,1.0,3,3,478.7,878338,trial_4_8_6
9,4,8,7,1.0,9,9,406.56,878747,trial_4_8_7
9,4,9,1,1.0,3,3,2452.71,889717,trial_4_9_1
9,4,9,2,,5,9,555.36,890274,trial_4_9_2
9,4,9,3,1.0,8,8,582.555,890858,trial_4_9_3
9,4,9,4,1.0,1,1,1118.61,891978,trial_4_9_4
9,4,9,5,1.0,5,5,478.51,892458,trial_4_9_5
9,4,9,6,1.0,2,2,534.54,892994,trial_4_9_6
9,4,9,7,1.0,4,4,374.505,893370,trial_4_9_7
9,4,10,1,1.0,3,3,2236.31,905123,trial_4_10_1
9,4,10,2,1.0,8,8,3221.62,908346,trial_4_10_2
9,4,10,3,1.0,7,7,605.845,908954,trial_4_10_3
9,4,10,4,1.0,6,6,662.61,909618,trial_4_10_4
9,4,10,5,1.0,9,9,606.685,910226,trial_4_10_5
9,4,10,6,1.0,4,4,614.565,910842,trial_4_10_6
9,4,10,7,1.0,2,2,1414.6,912258,trial_4_10_7
9,4,10,8,,4,1,270.35,912530,trial_4_10_8
9,4,11,1,1.0,1,1,2163.56,924211,trial_4_11_1
9,4,11,2,1.0,5,5,733.64,924946,trial_4_11_2
9,4,11,3,1.0,4,4,638.55,925586,trial_4_11_3
9,4,11,4,,8,7,2526.66,928114,trial_4_11_4
9,4,11,5,,7,8,726.515,928842,trial_4_11_5
9,4,11,6,1.0,3,3,614.555,929458,trial_4_11_6
9,4,11,7,1.0,9,9,1614.65,931074,trial_4_11_7
9,4,11,8,1.0,6,6,710.56,931786,trial_4_11_8
9,4,12,1,1.0,7,7,1607.7,943915,trial_4_12_1
9,4,12,2,,8,5,661.475,944578,trial_4_12_2
9,4,12,3,,7,1,606.74,945186,trial_4_12_3
9,4,12,4,1.0,9,9,1790.61,946978,trial_4_12_4
9,4,12,5,1.0,6,6,894.555,947874,trial_4_12_5
9,4,12,6,1.0,4,4,838.63,948714,trial_4_12_6
9,4,12,7,1.0,3,3,534.61,949250,trial_4_12_7
9,4,12,8,1.0,2,2,406.51,949658,trial_4_12_8
9,4,12,9,1.0,8,8,478.87,950138,trial_4_12_9
9,4,13,1,,9,7,1901.66,962563,trial_4_13_1
9,4,13,2,1.0,8,8,589.65,963154,trial_4_13_2
9,4,13,3,1.0,2,2,854.545,964010,trial_4_13_3
9,4,13,4,,1,9,2366.66,966378,trial_4_13_4
9,4,13,5,,2,6,3862.48,970242,trial_4_13_5
9,4,13,6,1.0,1,1,677.645,970922,trial_4_13_6
9,4,13,7,,7,4,1183.3,972106,trial_4_13_7
9,4,13,8,,8,5,1143.54,973251,trial_4_13_8
9,4,13,9,1.0,3,3,909.625,974162,trial_4_13_9
9,4,14,1,1.0,7,7,1338.04,985019,trial_4_14_1
9,4,14,2,,9,8,1381.45,986402,trial_4_14_2
9,4,14,3,1.0,5,5,686.535,987090,trial_4_14_3
9,4,14,4,1.0,1,1,1381.55,988474,trial_4_14_4
9,4,14,5,1.0,2,2,358.57,988834,trial_4_14_5
9,4,14,6,1.0,3,3,606.65,989442,trial_4_14_6
9,4,14,7,1.0,9,9,830.58,990274,trial_4_14_7
9,4,14,8,1.0,6,6,982.55,991258,trial_4_14_8
10,1,1,1,1.0,8,8,1801.8,38299,trial_1_1_1
10,1,1,2,1.0,5,5,499.7,38804,trial_1_1_2
10,1,1,3,1.0,1,1,389.5,39200,trial_1_1_3
10,1,2,1,1.0,8,8,1383.5,46123,trial_1_2_1
10,1,2,2,1.0,9,9,346.9,46474,trial_1_2_2
10,1,2,3,1.0,1,1,517.1,46995,trial_1_2_3
10,1,2,4,,7,6,356.5,47355,trial_1_2_4
10,1,3,1,1.0,3,3,1049.1,54956,trial_1_3_1
10,1,3,2,1.0,8,8,1451.8,56421,trial_1_3_2
10,1,3,3,1.0,5,5,586.1,57011,trial_1_3_3
10,1,3,4,1.0,9,9,698.4,57713,trial_1_3_4
10,1,3,5,1.0,4,4,543.2,58259,trial_1_3_5
10,1,4,1,1.0,4,4,1495.1,67294,trial_1_4_1
10,1,4,2,1.0,6,6,413.6,67711,trial_1_4_2
10,1,4,3,1.0,7,7,376.1,68090,trial_1_4_3
10,1,4,4,1.0,5,5,888.8,68983,trial_1_4_4
10,1,4,5,1.0,8,8,1228.1,70215,trial_1_4_5
10,1,4,6,1.0,2,2,663.8,70882,trial_1_4_6
10,1,5,1,1.0,8,8,3177.9,82623,trial_1_5_1
10,1,5,2,1.0,3,3,456.8,83084,trial_1_5_2
10,1,5,3,1.0,6,6,869.1,83956,trial_1_5_3
10,1,5,4,,9,2,549.2,84507,trial_1_5_4
10,1,5,5,1.0,7,7,1361.2,85871,trial_1_5_5
10,1,5,6,,2,9,440.5,86317,trial_1_5_6
10,1,5,7,1.0,1,1,1033.0,87353,trial_1_5_7
10,1,6,1,1.0,6,6,1211.8,97108,trial_1_6_1
10,1,6,2,1.0,8,8,455.8,97566,trial_1_6_2
10,1,6,3,1.0,5,5,454.7,98023,trial_1_6_3
10,1,6,4,1.0,2,2,647.8,98674,trial_1_6_4
10,1,6,5,1.0,4,4,4828.7,103506,trial_1_6_5
10,1,6,6,1.0,9,9,200.4,103710,trial_1_6_6
10,1,6,7,1.0,7,7,233.2,103947,trial_1_6_7
10,1,7,1,1.0,1,1,1749.6,113232,trial_1_7_1
10,1,7,2,1.0,2,2,401.7,113638,trial_1_7_2
10,1,7,3,1.0,5,5,1290.0,114931,trial_1_7_3
10,1,7,4,1.0,8,8,604.3,115538,trial_1_7_4
10,1,7,5,1.0,4,4,565.4,116107,trial_1_7_5
10,1,7,6,1.0,7,7,723.7,116837,trial_1_7_6
10,1,8,1,1.0,3,3,2987.0,128358,trial_1_8_1
10,1,8,2,1.0,6,6,647.0,129010,trial_1_8_2
10,1,8,3,1.0,9,9,398.1,129412,trial_1_8_3
10,1,8,4,,5,1,1242.5,130658,trial_1_8_4
10,1,8,5,1.0,2,2,427.6,131088,trial_1_8_5
10,1,8,6,,1,5,349.6,131443,trial_1_8_6
10,1,8,7,1.0,7,7,369.3,131816,trial_1_8_7
10,1,9,1,1.0,8,8,2254.1,142613,trial_1_9_1
10,1,9,2,1.0,7,7,690.2,143305,trial_1_9_2
10,1,9,3,1.0,5,5,427.2,143739,trial_1_9_3
10,1,9,4,1.0,4,4,1124.8,144868,trial_1_9_4
10,1,9,5,1.0,2,2,274.6,145146,trial_1_9_5
10,1,9,6,1.0,6,6,1094.8,146246,trial_1_9_6
10,1,9,7,1.0,1,1,315.2,146567,trial_1_9_7
10,1,10,1,1.0,9,9,2493.3,158608,trial_1_10_1
10,1,10,2,1.0,8,8,1114.2,159727,trial_1_10_2
10,1,10,3,1.0,6,6,818.8,160549,trial_1_10_3
10,1,10,4,,4,3,559.2,161112,trial_1_10_4
10,1,10,5,,7,2,1968.6,163084,trial_1_10_5
10,1,10,6,,1,4,534.6,163622,trial_1_10_6
10,1,10,7,,3,7,244.1,163872,trial_1_10_7
10,1,10,8,,2,1,183.5,164060,trial_1_10_8
10,1,11,1,1.0,5,5,756.1,174363,trial_1_11_1
10,1,11,2,1.0,4,4,515.6,174881,trial_1_11_2
10,1,11,3,1.0,3,3,396.0,175281,trial_1_11_3
10,1,11,4,1.0,8,8,476.6,175761,trial_1_11_4
10,1,11,5,1.0,6,6,2424.0,178192,trial_1_11_5
10,1,11,6,1.0,9,9,654.4,178852,trial_1_11_6
10,1,11,7,1.0,7,7,711.1,179570,trial_1_11_7
10,1,11,8,1.0,2,2,1040.1,180614,trial_1_11_8
10,1,12,1,1.0,9,9,1332.0,192499,trial_1_12_1
10,1,12,2,1.0,2,2,1329.0,193831,trial_1_12_2
10,1,12,3,1.0,3,3,534.5,194369,trial_1_12_3
10,1,12,4,1.0,1,1,281.8,194655,trial_1_12_4
10,1,12,5,,4,7,4598.3,199256,trial_1_12_5
10,1,12,6,,8,6,430.4,199690,trial_1_12_6
10,1,12,7,,9,4,1380.9,201075,trial_1_12_7
10,1,12,8,,7,5,663.9,201743,trial_1_12_8
10,1,12,9,,2,8,332.4,202080,trial_1_12_9
10,1,13,1,1.0,4,4,1686.5,214311,trial_1_13_1
10,1,13,2,1.0,3,3,185.1,214501,trial_1_13_2
10,1,13,3,1.0,7,7,740.7,215243,trial_1_13_3
10,1,13,4,1.0,5,5,404.1,215649,trial_1_13_4
10,1,13,5,1.0,8,8,619.0,216271,trial_1_13_5
10,1,13,6,1.0,1,1,1034.0,217308,trial_1_13_6
10,1,13,7,,9,2,584.3,217895,trial_1_13_7
10,1,13,8,,2,9,1285.5,219182,trial_1_13_8
10,1,13,9,1.0,6,6,1457.9,220643,trial_1_13_9
10,1,14,1,1.0,5,5,389.3,230575,trial_1_14_1
10,1,14,2,1.0,2,2,942.1,231521,trial_1_14_2
10,1,14,3,,9,3,602.8,232126,trial_1_14_3
10,1,14,4,,7,9,2037.2,234167,trial_1_14_4
10,1,14,5,,8,6,795.9,234967,trial_1_14_5
10,1,14,6,,1,8,324.1,235295,trial_1_14_6
10,1,14,7,,6,7,310.4,235608,trial_1_14_7
10,1,14,8,,6,1,707.2,236320,trial_1_14_8
10,2,1,1,1.0,1,1,1177.0,291610,trial_2_1_1
10,2,1,2,1.0,8,8,248.2,291862,trial_2_1_2
10,2,1,3,1.0,2,2,204.2,292071,trial_2_1_3
10,2,2,1,1.0,6,6,878.3,298488,trial_2_2_1
10,2,2,2,1.0,5,5,321.1,298812,trial_2_2_2
10,2,2,3,1.0,3,3,1102.1,299920,trial_2_2_3
10,2,2,4,1.0,9,9,528.2,300452,trial_2_2_4
10,2,3,1,1.0,5,5,1119.9,308115,trial_2_3_1
10,2,3,2,1.0,9,9,587.4,308706,trial_2_3_2
10,2,3,3,1.0,7,7,891.5,309602,trial_2_3_3
10,2,3,4,1.0,2,2,705.1,310312,trial_2_3_4
10,2,3,5,1.0,8,8,966.4,311283,trial_2_3_5
10,2,4,1,1.0,2,2,911.2,319749,trial_2_4_1
10,2,4,2,1.0,8,8,557.1,320310,trial_2_4_2
10,2,4,3,1.0,3,3,525.9,320840,trial_2_4_3
10,2,4,4,1.0,1,1,434.2,321278,trial_2_4_4
10,2,4,5,1.0,6,6,720.9,322003,trial_2_4_5
10,2,4,6,1.0,7,7,301.8,322309,trial_2_4_6
10,2,5,1,1.0,9,9,1003.0,331866,trial_2_5_1
10,2,5,2,1.0,3,3,386.2,332256,trial_2_5_2
10,2,5,3,1.0,2,2,411.0,332671,trial_2_5_3
10,2,5,4,1.0,1,1,291.5,332966,trial_2_5_4
10,2,5,5,1.0,5,5,785.1,333756,trial_2_5_5
10,2,5,6,1.0,6,6,1393.9,335154,trial_2_5_6
10,2,5,7,1.0,7,7,630.2,335786,trial_2_5_7
10,2,6,1,1.0,3,3,1356.1,345665,trial_2_6_1
