[
  {
    "rt": 1120.824999990873,
    "stimulus": "Bienvenue sur mon expérience de test pour le framework JSPsych, appuyez sur une touche de votre clavier pour continuer.",
    "key_press": 70,
    "trial_type": "html-keyboard-response",
    "trial_index": 0,
    "time_elapsed": 1122,
    "internal_node_id": "0.0-0.0"
  },
  {
    "rt": 659.1100000077859,
    "stimulus": "<p>Dans cette expérience, un cercle apparaitra au centre de l'écran.</p>\n<p>Si le cercle est <strong>bleu</strong>, appuyez sur la touche F du clavier aussi vite que possible.</p>\n<p>Si le cercle est <strong>orange</strong>, appuyez sur la touche J du clavier aussi vite que possible.</p>\n<div style='width: 700px;'>\n    <div style='float: left;'>\n        <img src='img/blue.png'>\n        <p class='small'><strong>Appuyez sur la touche F</strong></p></div>\n    <div class='float: right;'>\n        <img src='img/orange.png'>\n        <p class='small'><strong>Appuyez sur la touche J</strong></p></div>\n</div>\n<p>Appuyez sur n'importe quelle touche pour continuer.</p>",
    "key_press": 70,
    "trial_type": "html-keyboard-response",
    "trial_index": 1,
    "time_elapsed": 1782,
    "internal_node_id": "0.0-1.0"
  },
  {
    "rt": 485.5400000233203,
    "stimulus": "img/blue.png",
    "key_press": 70,
    "trial_type": "image-keyboard-response",
    "trial_index": 2,
    "time_elapsed": 2268,
    "internal_node_id": "0.0-2.0"
  },
  {
    "rt": 1143.3400000678375,
    "stimulus": "img/orange.png",
    "key_press": 70,
    "trial_type": "image-keyboard-response",
    "trial_index": 3,
    "time_elapsed": 3412,
    "internal_node_id": "0.0-3.0"
  },
  {
    "rt": null,
    "stimulus": "<div style=\"font-size:60px;\">+</div>",
    "key_press": null,
    "test_part": "fixation",
    "trial_type": "html-keyboard-response",
    "trial_index": 4,
    "time_elapsed": 4414,
    "internal_node_id": "0.0-4.0-0.0"
  },
  {
    "rt": 191.34500005748123,
    "stimulus": "img/orange.png",
    "key_press": 70,
    "test_part": "test",
    "correct_response": "j",
    "trial_type": "image-keyboard-response",
    "trial_index": 5,
    "time_elapsed": 4606,
    "internal_node_id": "0.0-4.0-1.0"
  },
  {
    "rt": null,
    "stimulus": "<div style=\"font-size:60px;\">+</div>",
    "key_press": null,
    "test_part": "fixation",
    "trial_type": "html-keyboard-response",
    "trial_index": 6,
    "time_elapsed": 5607,
    "internal_node_id": "0.0-4.0-0.1"
  },
  {
    "rt": 452.699999907054,
    "stimulus": "img/blue.png",
    "key_press": 70,
    "test_part": "test",
    "correct_response": "f",
    "trial_type": "image-keyboard-response",
    "trial_index": 7,
    "time_elapsed": 6060,
    "internal_node_id": "0.0-4.0-1.1"
  },
  {
    "rt": null,
    "stimulus": "<div style=\"font-size:60px;\">+</div>",
    "key_press": null,
    "test_part": "fixation",
    "trial_type": "html-keyboard-response",
    "trial_index": 8,
    "time_elapsed": 7061,
    "internal_node_id": "0.0-4.0-0.2"
  },
  {
    "rt": 316.4200000464916,
    "stimulus": "img/orange.png",
    "key_press": 70,
    "test_part": "test",
    "correct_response": "j",
    "trial_type": "image-keyboard-response",
    "trial_index": 9,
    "time_elapsed": 7378,
    "internal_node_id": "0.0-4.0-1.2"
  },
  {
    "rt": null,
    "stimulus": "<div style=\"font-size:60px;\">+</div>",
    "key_press": null,
    "test_part": "fixation",
    "trial_type": "html-keyboard-response",
    "trial_index": 10,
    "time_elapsed": 8379,
    "internal_node_id": "0.0-4.0-0.3"
  },
  {
    "rt": 198.16999998874962,
    "stimulus": "img/blue.png",
    "key_press": 70,
    "test_part": "test",
    "correct_response": "f",
    "trial_type": "image-keyboard-response",
    "trial_index": 11,
    "time_elapsed": 8578,
    "internal_node_id": "0.0-4.0-1.3"
  },
  {
    "rt": null,
    "stimulus": "<div style=\"font-size:60px;\">+</div>",
    "key_press": null,
    "test_part": "fixation",
    "trial_type": "html-keyboard-response",
    "trial_index": 12,
    "time_elapsed": 9579,
    "internal_node_id": "0.0-4.0-0.4"
  },
  {
    "rt": 178.13999997451901,
    "stimulus": "img/blue.png",
    "key_press": 70,
    "test_part": "test",
    "correct_response": "f",
    "trial_type": "image-keyboard-response",
    "trial_index": 13,
    "time_elapsed": 9758,
    "internal_node_id": "0.0-4.0-1.4"
  },
  {
    "rt": null,
    "stimulus": "<div style=\"font-size:60px;\">+</div>",
    "key_press": null,
    "test_part": "fixation",
    "trial_type": "html-keyboard-response",
    "trial_index": 14,
    "time_elapsed": 10759,
    "internal_node_id": "0.0-4.0-0.5"
  },
  {
    "rt": 216.01499989628792,
    "stimulus": "img/orange.png",
    "key_press": 70,
    "test_part": "test",
    "correct_response": "j",
    "trial_type": "image-keyboard-response",
    "trial_index": 15,
    "time_elapsed": 10975,
    "internal_node_id": "0.0-4.0-1.5"
  },
  {
    "rt": null,
    "stimulus": "<div style=\"font-size:60px;\">+</div>",
    "key_press": null,
    "test_part": "fixation",
    "trial_type": "html-keyboard-response",
    "trial_index": 16,
    "time_elapsed": 11977,
    "internal_node_id": "0.0-4.0-0.6"
  },
  {
    "rt": 226.9899999955669,
    "stimulus": "img/orange.png",
    "key_press": 70,
    "test_part": "test",
    "correct_response": "j",
    "trial_type": "image-keyboard-response",
    "trial_index": 17,
    "time_elapsed": 12204,
    "internal_node_id": "0.0-4.0-1.6"
  },
  {
    "rt": null,
    "stimulus": "<div style=\"font-size:60px;\">+</div>",
    "key_press": null,
    "test_part": "fixation",
    "trial_type": "html-keyboard-response",
    "trial_index": 18,
    "time_elapsed": 13205,
    "internal_node_id": "0.0-4.0-0.7"
  },
  {
    "rt": 262.929999968037,
    "stimulus": "img/blue.png",
    "key_press": 70,
    "test_part": "test",
    "correct_response": "f",
    "trial_type": "image-keyboard-response",
    "trial_index": 19,
    "time_elapsed": 13468,
    "internal_node_id": "0.0-4.0-1.7"
  },
  {
    "rt": null,
    "stimulus": "<div style=\"font-size:60px;\">+</div>",
    "key_press": null,
    "test_part": "fixation",
    "trial_type": "html-keyboard-response",
    "trial_index": 20,
    "time_elapsed": 14469,
    "internal_node_id": "0.0-4.0-0.8"
  },
  {
    "rt": 268.82999995723367,
    "stimulus": "img/orange.png",
    "key_press": 70,
    "test_part": "test",
    "correct_response": "j",
    "trial_type": "image-keyboard-response",
    "trial_index": 21,
    "time_elapsed": 14738,
    "internal_node_id": "0.0-4.0-1.8"
  },
  {
    "rt": null,
    "stimulus": "<div style=\"font-size:60px;\">+</div>",
    "key_press": null,
    "test_part": "fixation",
    "trial_type": "html-keyboard-response",
    "trial_index": 22,
    "time_elapsed": 15739,
    "internal_node_id": "0.0-4.0-0.9"
  },
  {
    "rt": 215.74000001419336,
    "stimulus": "img/blue.png",
    "key_press": 70,
    "test_part": "test",
    "correct_response": "f",
    "trial_type": "image-keyboard-response",
    "trial_index": 23,
    "time_elapsed": 15955,
    "internal_node_id": "0.0-4.0-1.9"
  }
]