[
  {
    "rt": 763.665000005858,
    "stimulus": "Réponse :",
    "key_press": "9",
    "test_part": "trial_1_1_1",
    "correct_response": 9,
    "trial_type": "html-keyboard-response",
    "trial_index": 5,
    "time_elapsed": 6171,
    "internal_node_id": "0.0-3.0-0.0",
    "correct": true
  },
  {
    "rt": 257.7599999931408,
    "stimulus": "Réponse :",
    "key_press": "1",
    "test_part": "trial_1_1_2",
    "correct_response": 1,
    "trial_type": "html-keyboard-response",
    "trial_index": 6,
    "time_elapsed": 6434,
    "internal_node_id": "0.0-3.0-0.1",
    "correct": true
  },
  {
    "rt": 470.40999999444466,
    "stimulus": "Réponse :",
    "key_press": "6",
    "test_part": "trial_1_1_3",
    "correct_response": 6,
    "trial_type": "html-keyboard-response",
    "trial_index": 7,
    "time_elapsed": 6909,
    "internal_node_id": "0.0-3.0-0.2",
    "correct": true
  },
  {
    "rt": 1275.2849999960745,
    "stimulus": "Réponse :",
    "key_press": "7",
    "test_part": "trial_2_1_1",
    "correct_response": 7,
    "trial_type": "html-keyboard-response",
    "trial_index": 23,
    "time_elapsed": 31636,
    "internal_node_id": "0.0-17.0-0.0",
    "correct": true
  },
  {
    "rt": 257.41500000003725,
    "stimulus": "Réponse :",
    "key_press": "8",
    "test_part": "trial_2_1_2",
    "correct_response": 8,
    "trial_type": "html-keyboard-response",
    "trial_index": 24,
    "time_elapsed": 31898,
    "internal_node_id": "0.0-17.0-0.1",
    "correct": true
  },
  {
    "rt": 274.61000000766944,
    "stimulus": "Réponse :",
    "key_press": "1",
    "test_part": "trial_2_1_3",
    "correct_response": 1,
    "trial_type": "html-keyboard-response",
    "trial_index": 25,
    "time_elapsed": 32179,
    "internal_node_id": "0.0-17.0-0.2",
    "correct": true
  }
]