[
  {
    "rt": 4797.535000019707,
    "stimulus": "Réponse :",
    "key_press": "1",
    "test_part": "rep_3_1",
    "correct_response": 1,
    "trial_type": "html-keyboard-response",
    "trial_index": 5,
    "time_elapsed": 10910,
    "internal_node_id": "0.0-3.0-0.0"
  },
  {
    "rt": 503.28999999328516,
    "stimulus": "Réponse :",
    "key_press": "8",
    "test_part": "rep_3_2",
    "correct_response": 8,
    "trial_type": "html-keyboard-response",
    "trial_index": 6,
    "time_elapsed": 11416,
    "internal_node_id": "0.0-3.0-0.1"
  },
  {
    "rt": 407.42499998304993,
    "stimulus": "Réponse :",
    "key_press": "4",
    "test_part": "rep_3_3",
    "correct_response": 4,
    "trial_type": "html-keyboard-response",
    "trial_index": 7,
    "time_elapsed": 11825,
    "internal_node_id": "0.0-3.0-0.2"
  },
  {
    "rt": 796.4750000101048,
    "stimulus": "Réponse :",
    "key_press": "3",
    "test_part": "rep_4_1",
    "correct_response": 3,
    "trial_type": "html-keyboard-response",
    "trial_index": 13,
    "time_elapsed": 18148,
    "internal_node_id": "0.0-6.0-0.0"
  },
  {
    "rt": 362.0150000206195,
    "stimulus": "Réponse :",
    "key_press": "2",
    "test_part": "rep_4_2",
    "correct_response": 2,
    "trial_type": "html-keyboard-response",
    "trial_index": 14,
    "time_elapsed": 18511,
    "internal_node_id": "0.0-6.0-0.1"
  },
  {
    "rt": 401.77999998559244,
    "stimulus": "Réponse :",
    "key_press": "6",
    "test_part": "rep_4_3",
    "correct_response": 6,
    "trial_type": "html-keyboard-response",
    "trial_index": 15,
    "time_elapsed": 18916,
    "internal_node_id": "0.0-6.0-0.2"
  },
  {
    "rt": 265.369999979157,
    "stimulus": "Réponse :",
    "key_press": "7",
    "test_part": "rep_4_4",
    "correct_response": 7,
    "trial_type": "html-keyboard-response",
    "trial_index": 16,
    "time_elapsed": 19183,
    "internal_node_id": "0.0-6.0-0.3"
  }
]