id_sujet,trial,item,correct,key_press,correct_response,rt,time_elapsed,test_part
30,1,1,1,2,2,425.17,124134,trial_1_1
30,1,2,1,9,9,135.26,124270,trial_1_2
30,1,3,1,5,5,173.41,124444,trial_1_3
30,2,1,1,4,4,648.54,130598,trial_2_1
30,2,2,1,1,1,728.415,131327,trial_2_2
30,2,3,1,3,3,295.485,131623,trial_2_3
30,2,4,1,7,7,513.59,132137,trial_2_4
30,3,1,1,5,5,820.64,139464,trial_3_1
30,3,2,1,7,7,501.425,139966,trial_3_2
30,3,3,1,3,3,441.465,140408,trial_3_3
30,3,4,1,6,6,516.67,140925,trial_3_4
30,3,5,1,9,9,392.365,141318,trial_3_5
30,4,1,0,5,8,342.905,149171,trial_4_1
30,4,2,0,4,2,51.475,149223,trial_4_2
30,4,3,0,7,1,9.44,149232,trial_4_3
30,4,4,0,6,5,17.55,149250,trial_4_4
30,4,5,0,8,3,3.51,149254,trial_4_5
30,4,6,1,9,9,206.555,149462,trial_4_6
30,5,1,0,5,3,466.985,158437,trial_5_1
30,5,2,0,9,2,0.54,158438,trial_5_2
30,5,3,0,8,1,17.55,158456,trial_5_3
30,5,4,0,4,5,91.635,158548,trial_5_4
30,5,5,1,7,7,85.44,158634,trial_5_5
30,5,6,1,6,6,11.23,158646,trial_5_6
30,5,7,0,2,8,13.65,158660,trial_5_7
30,6,1,0,5,9,344.34,167515,trial_6_1
30,6,2,0,8,6,99.655,167616,trial_6_2
30,6,3,0,9,5,0.12,167616,trial_6_3
30,6,4,0,4,3,61.07,167678,trial_6_4
30,6,5,0,6,2,216.22,167895,trial_6_5
30,6,6,0,5,8,33.68,167929,trial_6_6
30,6,7,0,4,7,143.41,168073,trial_6_7
30,7,1,0,9,1,504.54,176085,trial_7_1
30,7,2,0,4,2,14.365,176100,trial_7_2
30,7,3,0,8,9,15.545,176116,trial_7_3
30,7,4,0,2,4,83.625,176200,trial_7_4
30,7,5,0,3,8,23.47,176224,trial_7_5
30,7,6,0,7,3,29.515,176254,trial_7_6
30,8,1,0,9,4,1054.31,185816,trial_8_1
30,8,2,0,8,2,64.45,185881,trial_8_2
30,8,3,0,2,6,1.77,185884,trial_8_3
30,8,4,0,4,9,0.08,185884,trial_8_4
30,8,5,0,7,8,0.055,185884,trial_8_5
30,8,6,0,3,1,15.73,185900,trial_8_6
30,8,7,0,6,5,84.67,185985,trial_8_7
30,9,1,0,8,3,1298.98,195798,trial_9_1
30,9,2,0,9,1,0.105,195799,trial_9_2
30,9,3,0,6,8,179.86,195979,trial_9_3
30,9,4,0,7,4,14.535,195994,trial_9_4
30,9,5,0,4,9,19.63,196014,trial_9_5
30,9,6,0,5,2,110.47,196125,trial_9_6
30,9,7,0,4,6,84.61,196210,trial_9_7
30,10,1,0,4,9,1907.23,207627,trial_10_1
30,10,2,0,9,5,0.105,207627,trial_10_2
30,10,3,1,3,3,0.055,207628,trial_10_3
30,10,4,0,8,2,13.69,207641,trial_10_4
30,10,5,0,5,4,63.62,207706,trial_10_5
30,10,6,0,7,6,23.31,207729,trial_10_6
30,10,7,0,5,1,378.06,208108,trial_10_7
30,10,8,0,6,7,0.125,208108,trial_10_8
30,11,1,0,5,7,531.47,218148,trial_11_1
30,11,2,0,4,5,42.53,218191,trial_11_2
30,11,3,0,9,3,11.33,218203,trial_11_3
30,11,4,0,8,9,11.575,218215,trial_11_4
30,11,5,0,3,1,27.565,218243,trial_11_5
30,11,6,0,7,4,97.83,218341,trial_11_6
30,11,7,0,5,8,23.255,218365,trial_11_7
30,11,8,0,3,6,133.505,218499,trial_11_8
30,12,1,0,9,7,1079.79,230090,trial_12_1
30,12,2,0,8,5,18.45,230109,trial_12_2
30,12,3,0,7,6,151.695,230261,trial_12_3
30,12,4,0,4,2,207.435,230469,trial_12_4
30,12,5,0,3,8,17.475,230487,trial_12_5
30,12,6,1,9,9,151.695,230639,trial_12_6
30,12,7,0,5,3,1.3,230641,trial_12_7
30,12,8,0,8,1,11.62,230653,trial_12_8
30,12,9,0,7,4,53.725,230707,trial_12_9
30,13,1,0,5,8,422.22,241641,trial_13_1
30,13,2,0,7,1,26.48,241668,trial_13_2
30,13,3,0,8,5,116.55,241785,trial_13_3
30,13,4,0,9,7,7.435,241793,trial_13_4
30,13,5,1,3,3,51.495,241845,trial_13_5
30,13,6,0,2,4,29.48,241875,trial_13_6
30,13,7,0,7,9,112.45,241988,trial_13_7
30,13,8,0,5,2,4.705,241993,trial_13_8
30,13,9,0,8,6,171.92,242166,trial_13_9
30,14,1,0,7,2,512.355,252188,trial_14_1
30,14,2,0,5,4,22.49,252211,trial_14_2
30,14,3,0,8,6,133.725,252345,trial_14_3
30,14,4,0,9,7,0.11,252346,trial_14_4
30,14,5,0,4,9,12.985,252359,trial_14_5
30,14,6,0,2,8,27.445,252387,trial_14_6
30,14,7,0,7,3,141.6,252529,trial_14_7
30,14,8,0,5,1,4.1,252533,trial_14_8
31,1,1,1,2,2,425.17,124134,trial_1_1
31,1,2,1,9,9,135.26,124270,trial_1_2
31,1,3,1,5,5,173.41,124444,trial_1_3
31,2,1,1,4,4,648.54,130598,trial_2_1
31,2,2,1,1,1,728.415,131327,trial_2_2
31,2,3,1,3,3,295.485,131623,trial_2_3
31,2,4,1,7,7,513.59,132137,trial_2_4
31,3,1,1,5,5,820.64,139464,trial_3_1
31,3,2,1,7,7,501.425,139966,trial_3_2
31,3,3,1,3,3,441.465,140408,trial_3_3
31,3,4,1,6,6,516.67,140925,trial_3_4
31,3,5,1,9,9,392.365,141318,trial_3_5
31,4,1,0,5,8,342.905,149171,trial_4_1
31,4,2,0,4,2,51.475,149223,trial_4_2
31,4,3,0,7,1,9.44,149232,trial_4_3
31,4,4,0,6,5,17.55,149250,trial_4_4
31,4,5,0,8,3,3.51,149254,trial_4_5
31,4,6,1,9,9,206.555,149462,trial_4_6
31,5,1,0,5,3,466.985,158437,trial_5_1
31,5,2,0,9,2,0.54,158438,trial_5_2
31,5,3,0,8,1,17.55,158456,trial_5_3
31,5,4,0,4,5,91.635,158548,trial_5_4
31,5,5,1,7,7,85.44,158634,trial_5_5
31,5,6,1,6,6,11.23,158646,trial_5_6
31,5,7,0,2,8,13.65,158660,trial_5_7
31,6,1,0,5,9,344.34,167515,trial_6_1
31,6,2,0,8,6,99.655,167616,trial_6_2
31,6,3,0,9,5,0.12,167616,trial_6_3
31,6,4,0,4,3,61.07,167678,trial_6_4
31,6,5,0,6,2,216.22,167895,trial_6_5
31,6,6,0,5,8,33.68,167929,trial_6_6
31,6,7,0,4,7,143.41,168073,trial_6_7
31,7,1,0,9,1,504.54,176085,trial_7_1
31,7,2,0,4,2,14.365,176100,trial_7_2
31,7,3,0,8,9,15.545,176116,trial_7_3
31,7,4,0,2,4,83.625,176200,trial_7_4
31,7,5,0,3,8,23.47,176224,trial_7_5
31,7,6,0,7,3,29.515,176254,trial_7_6
31,8,1,0,9,4,1054.31,185816,trial_8_1
31,8,2,0,8,2,64.45,185881,trial_8_2
31,8,3,0,2,6,1.77,185884,trial_8_3
31,8,4,0,4,9,0.08,185884,trial_8_4
31,8,5,0,7,8,0.055,185884,trial_8_5
31,8,6,0,3,1,15.73,185900,trial_8_6
31,8,7,0,6,5,84.67,185985,trial_8_7
31,9,1,0,8,3,1298.98,195798,trial_9_1
31,9,2,0,9,1,0.105,195799,trial_9_2
31,9,3,0,6,8,179.86,195979,trial_9_3
31,9,4,0,7,4,14.535,195994,trial_9_4
31,9,5,0,4,9,19.63,196014,trial_9_5
31,9,6,0,5,2,110.47,196125,trial_9_6
31,9,7,0,4,6,84.61,196210,trial_9_7
31,10,1,0,4,9,1907.23,207627,trial_10_1
31,10,2,0,9,5,0.105,207627,trial_10_2
31,10,3,1,3,3,0.055,207628,trial_10_3
31,10,4,0,8,2,13.69,207641,trial_10_4
31,10,5,0,5,4,63.62,207706,trial_10_5
31,10,6,0,7,6,23.31,207729,trial_10_6
31,10,7,0,5,1,378.06,208108,trial_10_7
31,10,8,0,6,7,0.125,208108,trial_10_8
31,11,1,0,5,7,531.47,218148,trial_11_1
31,11,2,0,4,5,42.53,218191,trial_11_2
31,11,3,0,9,3,11.33,218203,trial_11_3
31,11,4,0,8,9,11.575,218215,trial_11_4
31,11,5,0,3,1,27.565,218243,trial_11_5
31,11,6,0,7,4,97.83,218341,trial_11_6
31,11,7,0,5,8,23.255,218365,trial_11_7
31,11,8,0,3,6,133.505,218499,trial_11_8
31,12,1,0,9,7,1079.79,230090,trial_12_1
31,12,2,0,8,5,18.45,230109,trial_12_2
31,12,3,0,7,6,151.695,230261,trial_12_3
31,12,4,0,4,2,207.435,230469,trial_12_4
31,12,5,0,3,8,17.475,230487,trial_12_5
31,12,6,1,9,9,151.695,230639,trial_12_6
31,12,7,0,5,3,1.3,230641,trial_12_7
31,12,8,0,8,1,11.62,230653,trial_12_8
31,12,9,0,7,4,53.725,230707,trial_12_9
31,13,1,0,5,8,422.22,241641,trial_13_1
31,13,2,0,7,1,26.48,241668,trial_13_2
31,13,3,0,8,5,116.55,241785,trial_13_3
31,13,4,0,9,7,7.435,241793,trial_13_4
31,13,5,1,3,3,51.495,241845,trial_13_5
31,13,6,0,2,4,29.48,241875,trial_13_6
31,13,7,0,7,9,112.45,241988,trial_13_7
31,13,8,0,5,2,4.705,241993,trial_13_8
31,13,9,0,8,6,171.92,242166,trial_13_9
31,14,1,0,7,2,512.355,252188,trial_14_1
31,14,2,0,5,4,22.49,252211,trial_14_2
31,14,3,0,8,6,133.725,252345,trial_14_3
31,14,4,0,9,7,0.11,252346,trial_14_4
31,14,5,0,4,9,12.985,252359,trial_14_5
31,14,6,0,2,8,27.445,252387,trial_14_6
31,14,7,0,7,3,141.6,252529,trial_14_7
31,14,8,0,5,1,4.1,252533,trial_14_8
32,1,1,1,2,2,425.17,124134,trial_1_1
32,1,2,1,9,9,135.26,124270,trial_1_2
32,1,3,1,5,5,173.41,124444,trial_1_3
32,2,1,1,4,4,648.54,130598,trial_2_1
32,2,2,1,1,1,728.415,131327,trial_2_2
32,2,3,1,3,3,295.485,131623,trial_2_3
32,2,4,1,7,7,513.59,132137,trial_2_4
32,3,1,1,5,5,820.64,139464,trial_3_1
32,3,2,1,7,7,501.425,139966,trial_3_2
32,3,3,1,3,3,441.465,140408,trial_3_3
32,3,4,1,6,6,516.67,140925,trial_3_4
32,3,5,1,9,9,392.365,141318,trial_3_5
32,4,1,0,5,8,342.905,149171,trial_4_1
32,4,2,0,4,2,51.475,149223,trial_4_2
32,4,3,0,7,1,9.44,149232,trial_4_3
32,4,4,0,6,5,17.55,149250,trial_4_4
32,4,5,0,8,3,3.51,149254,trial_4_5
32,4,6,1,9,9,206.555,149462,trial_4_6
32,5,1,0,5,3,466.985,158437,trial_5_1
32,5,2,0,9,2,0.54,158438,trial_5_2
32,5,3,0,8,1,17.55,158456,trial_5_3
32,5,4,0,4,5,91.635,158548,trial_5_4
32,5,5,1,7,7,85.44,158634,trial_5_5
32,5,6,1,6,6,11.23,158646,trial_5_6
32,5,7,0,2,8,13.65,158660,trial_5_7
32,6,1,0,5,9,344.34,167515,trial_6_1
32,6,2,0,8,6,99.655,167616,trial_6_2
32,6,3,0,9,5,0.12,167616,trial_6_3
32,6,4,0,4,3,61.07,167678,trial_6_4
32,6,5,0,6,2,216.22,167895,trial_6_5
32,6,6,0,5,8,33.68,167929,trial_6_6
32,6,7,0,4,7,143.41,168073,trial_6_7
32,7,1,0,9,1,504.54,176085,trial_7_1
32,7,2,0,4,2,14.365,176100,trial_7_2
32,7,3,0,8,9,15.545,176116,trial_7_3
32,7,4,0,2,4,83.625,176200,trial_7_4
32,7,5,0,3,8,23.47,176224,trial_7_5
32,7,6,0,7,3,29.515,176254,trial_7_6
32,8,1,0,9,4,1054.31,185816,trial_8_1
32,8,2,0,8,2,64.45,185881,trial_8_2
32,8,3,0,2,6,1.77,185884,trial_8_3
32,8,4,0,4,9,0.08,185884,trial_8_4
32,8,5,0,7,8,0.055,185884,trial_8_5
32,8,6,0,3,1,15.73,185900,trial_8_6
32,8,7,0,6,5,84.67,185985,trial_8_7
32,9,1,0,8,3,1298.98,195798,trial_9_1
32,9,2,0,9,1,0.105,195799,trial_9_2
32,9,3,0,6,8,179.86,195979,trial_9_3
32,9,4,0,7,4,14.535,195994,trial_9_4
32,9,5,0,4,9,19.63,196014,trial_9_5
32,9,6,0,5,2,110.47,196125,trial_9_6
32,9,7,0,4,6,84.61,196210,trial_9_7
32,10,1,0,4,9,1907.23,207627,trial_10_1
32,10,2,0,9,5,0.105,207627,trial_10_2
32,10,3,1,3,3,0.055,207628,trial_10_3
32,10,4,0,8,2,13.69,207641,trial_10_4
32,10,5,0,5,4,63.62,207706,trial_10_5
32,10,6,0,7,6,23.31,207729,trial_10_6
32,10,7,0,5,1,378.06,208108,trial_10_7
32,10,8,0,6,7,0.125,208108,trial_10_8
32,11,1,0,5,7,531.47,218148,trial_11_1
32,11,2,0,4,5,42.53,218191,trial_11_2
32,11,3,0,9,3,11.33,218203,trial_11_3
32,11,4,0,8,9,11.575,218215,trial_11_4
32,11,5,0,3,1,27.565,218243,trial_11_5
32,11,6,0,7,4,97.83,218341,trial_11_6
32,11,7,0,5,8,23.255,218365,trial_11_7
32,11,8,0,3,6,133.505,218499,trial_11_8
32,12,1,0,9,7,1079.79,230090,trial_12_1
32,12,2,0,8,5,18.45,230109,trial_12_2
32,12,3,0,7,6,151.695,230261,trial_12_3
32,12,4,0,4,2,207.435,230469,trial_12_4
32,12,5,0,3,8,17.475,230487,trial_12_5
32,12,6,1,9,9,151.695,230639,trial_12_6
32,12,7,0,5,3,1.3,230641,trial_12_7
32,12,8,0,8,1,11.62,230653,trial_12_8
32,12,9,0,7,4,53.725,230707,trial_12_9
32,13,1,0,5,8,422.22,241641,trial_13_1
32,13,2,0,7,1,26.48,241668,trial_13_2
32,13,3,0,8,5,116.55,241785,trial_13_3
32,13,4,0,9,7,7.435,241793,trial_13_4
32,13,5,1,3,3,51.495,241845,trial_13_5
32,13,6,0,2,4,29.48,241875,trial_13_6
32,13,7,0,7,9,112.45,241988,trial_13_7
32,13,8,0,5,2,4.705,241993,trial_13_8
32,13,9,0,8,6,171.92,242166,trial_13_9
32,14,1,0,7,2,512.355,252188,trial_14_1
32,14,2,0,5,4,22.49,252211,trial_14_2
32,14,3,0,8,6,133.725,252345,trial_14_3
32,14,4,0,9,7,0.11,252346,trial_14_4
32,14,5,0,4,9,12.985,252359,trial_14_5
32,14,6,0,2,8,27.445,252387,trial_14_6
32,14,7,0,7,3,141.6,252529,trial_14_7
32,14,8,0,5,1,4.1,252533,trial_14_8
33,1,1,1,5,5,980.26,10024,trial_1_1
33,1,2,1,4,4,157.49,10187,trial_1_2
33,1,3,1,7,7,429.88,10623,trial_1_3
33,2,1,1,2,2,1245.02,17395,trial_2_1
33,2,2,1,6,6,1230.15,18631,trial_2_2
33,2,3,1,9,9,848.47,19484,trial_2_3
33,2,4,1,1,1,543.885,20034,trial_2_4
33,3,1,1,6,6,2745.09,29309,trial_3_1
33,3,2,0,9,1,1881.01,31195,trial_3_2
33,3,3,0,2,9,705.5,31905,trial_3_3
33,3,4,0,1,7,631.92,32542,trial_3_4
33,3,5,0,7,8,1705.87,34252,trial_3_5
33,4,1,1,4,4,1239.64,43036,trial_4_1
33,4,2,1,3,3,480.945,43521,trial_4_2
33,4,3,1,7,7,642.24,44169,trial_4_3
33,4,4,1,1,1,636.525,44809,trial_4_4
33,4,5,0,3,5,1495.99,46310,trial_4_5
33,4,6,0,5,2,511.62,46826,trial_4_6
33,5,1,0,2,3,677.04,56042,trial_5_1
33,5,2,0,5,4,582.085,56630,trial_5_2
33,5,3,0,4,9,595.955,57231,trial_5_3
33,5,4,0,8,5,2216.93,59452,trial_5_4
33,5,5,0,5,2,772.2,60231,trial_5_5
33,5,6,0,7,6,553.655,60790,trial_5_6
33,5,7,0,2,1,1094.06,61888,trial_5_7
33,6,1,0,7,2,1681.88,72109,trial_6_1
33,6,2,0,3,4,469.9,72584,trial_6_2
33,6,3,1,9,9,935.715,73525,trial_6_3
33,6,4,0,5,3,600.36,74131,trial_6_4
33,6,5,0,2,5,1106.92,75248,trial_6_5
33,6,6,0,6,7,658.08,75911,trial_6_6
33,6,7,0,4,6,847.275,76763,trial_6_7
33,7,1,0,9,2,2284.36,86588,trial_7_1
33,7,2,0,3,1,657.68,87251,trial_7_2
33,7,3,0,7,4,834.845,88090,trial_7_3
33,7,4,1,5,5,1106.94,89202,trial_7_4
33,7,5,0,2,9,860.43,90068,trial_7_5
33,7,6,0,4,8,2250.15,92322,trial_7_6
33,8,1,0,5,1,8459.21,109316,trial_8_1
33,8,2,0,9,6,750.69,110072,trial_8_2
33,8,3,0,3,2,470.14,110547,trial_8_3
33,8,4,0,5,8,499.17,111050,trial_8_4
33,8,5,0,7,9,488.245,111543,trial_8_5
33,8,6,0,9,3,780.18,112328,trial_8_6
33,8,7,1,4,4,670.88,113003,trial_8_7
33,9,1,0,4,8,690.41,122235,trial_9_1
33,9,2,1,3,3,510.24,122750,trial_9_2
33,9,3,0,9,5,647.095,123402,trial_9_3
33,9,4,0,7,2,1158.97,124566,trial_9_4
33,9,5,0,5,4,915.375,125485,trial_9_5
33,9,6,0,1,6,593.615,126083,trial_9_6
33,9,7,0,3,1,949.94,127037,trial_9_7
33,10,1,0,7,2,1638.28,138218,trial_10_1
33,10,2,0,4,1,665.725,138888,trial_10_2
33,10,3,0,2,7,814.45,139706,trial_10_3
33,10,4,0,9,8,968.89,140679,trial_10_4
33,10,5,0,7,3,1368.01,142053,trial_10_5
33,10,6,0,5,9,887.335,142944,trial_10_6
33,10,7,1,4,4,966.615,143915,trial_10_7
33,10,8,0,2,5,777.39,144697,trial_10_8
33,11,1,0,9,4,1149.54,155391,trial_11_1
33,11,2,0,2,8,549.65,155946,trial_11_2
33,11,3,0,5,2,954.575,156904,trial_11_3
33,11,4,0,7,3,680.745,157590,trial_11_4
33,11,5,0,4,6,694.72,158289,trial_11_5
33,11,6,0,1,7,713.64,159007,trial_11_6
33,11,7,1,5,5,1018.58,160030,trial_11_7
33,11,8,0,3,9,626.185,160661,trial_11_8
33,12,1,0,4,6,717.575,171931,trial_12_1
33,12,2,0,7,3,521.89,172457,trial_12_2
33,12,3,1,9,9,870.665,173332,trial_12_3
33,12,4,1,2,2,707.27,174045,trial_12_4
33,12,5,0,5,4,872.195,174922,trial_12_5
33,12,6,0,3,7,723.15,175649,trial_12_6
33,12,7,0,5,1,796.025,176450,trial_12_7
33,12,8,0,2,5,705.22,177160,trial_12_8
33,12,9,0,7,8,717.125,177881,trial_12_9
33,13,1,0,7,6,611.33,189032,trial_13_1
33,13,2,0,2,7,598.47,189634,trial_13_2
33,13,3,0,4,8,778.61,190418,trial_13_3
33,13,4,0,9,1,733.595,191156,trial_13_4
33,13,5,1,5,5,533.295,191694,trial_13_5
33,13,6,0,6,3,709.255,192408,trial_13_6
33,13,7,0,1,4,621.79,193036,trial_13_7
33,13,8,0,4,9,583.39,193624,trial_13_8
33,13,9,0,3,2,775.46,194405,trial_13_9
33,14,1,0,5,9,1404.8,205362,trial_14_1
33,14,2,0,3,8,554.315,205920,trial_14_2
33,14,3,0,8,7,757.565,206683,trial_14_3
33,14,4,0,5,3,671.38,207359,trial_14_4
33,14,5,0,6,4,545.265,207909,trial_14_5
33,14,6,0,8,6,797.235,208710,trial_14_6
33,14,7,1,1,1,737.35,209452,trial_14_7
33,14,8,0,3,2,680.21,210137,trial_14_8
34,1,1,1,3,3,616.12,34489,trial_1_1
34,1,2,1,1,1,535.07,35025,trial_1_2
34,1,3,1,5,5,647.36,35673,trial_1_3
34,2,1,1,7,7,1071.03,42250,trial_2_1
34,2,2,1,8,8,471.185,42722,trial_2_2
34,2,3,1,4,4,615.38,43338,trial_2_3
34,2,4,1,2,2,343.31,43682,trial_2_4
34,3,1,1,7,7,2525.81,52715,trial_3_1
34,3,2,1,8,8,591.215,53307,trial_3_2
34,3,3,1,1,1,735.34,54044,trial_3_3
34,3,4,1,4,4,215.495,54260,trial_3_4
34,3,5,1,5,5,231.385,54492,trial_3_5
34,4,1,1,8,8,3180.16,65182,trial_4_1
34,4,2,1,1,1,423.09,65605,trial_4_2
34,4,3,1,2,2,343.48,65949,trial_4_3
34,4,4,1,7,7,1479.55,67430,trial_4_4
34,4,5,1,9,9,815.465,68246,trial_4_5
34,4,6,1,5,5,479.425,68726,trial_4_6
34,5,1,1,4,4,2045.01,79279,trial_5_1
34,5,2,1,5,5,399.155,79679,trial_5_2
34,5,3,1,8,8,943.32,80623,trial_5_3
34,5,4,1,2,2,1503.56,82127,trial_5_4
34,5,5,1,1,1,407.07,82535,trial_5_5
34,5,6,1,9,9,271.625,82807,trial_5_6
34,5,7,1,7,7,383.405,83192,trial_5_7
34,6,1,1,2,2,2332.08,94033,trial_6_1
34,6,2,1,6,6,463.28,94497,trial_6_2
34,6,3,1,7,7,295.325,94793,trial_6_3
34,6,4,1,3,3,679.505,95473,trial_6_4
34,6,5,1,4,4,782.315,96257,trial_6_5
34,6,6,1,8,8,671.325,96929,trial_6_6
34,6,7,1,9,9,335.305,97265,trial_6_7
34,7,1,1,1,1,2022.1,106794,trial_7_1
34,7,2,1,7,7,839.385,107635,trial_7_2
34,7,3,1,3,3,519.245,108154,trial_7_3
34,7,4,1,9,9,743.49,108899,trial_7_4
34,7,5,1,4,4,511.345,109411,trial_7_5
34,7,6,1,5,5,271.405,109683,trial_7_6
34,8,1,1,9,9,2100.18,120293,trial_8_1
34,8,2,1,2,2,415.18,120709,trial_8_2
34,8,3,1,1,1,311.325,121021,trial_8_3
34,8,4,1,8,8,999.435,122021,trial_8_4
34,8,5,1,7,7,775.295,122797,trial_8_5
34,8,6,1,3,3,567.335,123365,trial_8_6
34,8,7,1,5,5,399.55,123765,trial_8_7
34,9,1,1,8,8,3788.45,136063,trial_9_1
34,9,2,1,5,5,983.055,137047,trial_9_2
34,9,3,1,1,1,711.43,137759,trial_9_3
34,9,4,1,4,4,671.48,138431,trial_9_4
34,9,5,1,2,2,855.385,139287,trial_9_5
34,9,6,1,7,7,375.31,139663,trial_9_6
34,9,7,0,5,3,607.495,140271,trial_9_7
34,10,1,1,5,5,1923.48,151705,trial_10_1
34,10,2,1,7,7,1263.48,152969,trial_10_2
34,10,3,1,8,8,1279.49,154249,trial_10_3
34,10,4,0,4,3,2991.81,157242,trial_10_4
34,10,5,0,6,4,1543.45,158786,trial_10_5
34,10,6,0,1,6,3672.02,162458,trial_10_6
34,10,7,1,1,1,398.905,162858,trial_10_7
34,10,8,1,2,2,199.405,163058,trial_10_8
34,11,1,1,2,2,4171.63,176741,trial_11_1
34,11,2,1,1,1,439.0,177181,trial_11_2
34,11,3,1,3,3,399.3,177581,trial_11_3
34,11,4,1,4,4,671.46,178253,trial_11_4
34,11,5,1,8,8,1735.59,179989,trial_11_5
34,11,6,1,6,6,159.24,180149,trial_11_6
34,11,7,1,7,7,270.81,180421,trial_11_7
34,11,8,0,4,5,1423.61,181845,trial_11_8
34,12,1,1,6,6,8675.67,201032,trial_12_1
34,12,2,0,7,9,1503.06,202536,trial_12_2
34,12,3,0,5,3,1215.7,203752,trial_12_3
34,12,4,0,1,5,1071.52,204824,trial_12_4
34,12,5,0,8,7,191.265,205016,trial_12_5
34,12,6,0,4,8,1919.76,206936,trial_12_6
34,12,7,0,3,2,295.63,207232,trial_12_7
34,12,8,0,2,4,263.275,207496,trial_12_8
34,12,9,0,3,1,2151.92,209649,trial_12_9
34,13,1,1,1,1,5179.25,225339,trial_13_1
34,13,2,1,4,4,495.02,225835,trial_13_2
34,13,3,1,2,2,615.375,226451,trial_13_3
34,13,4,1,7,7,2191.55,228643,trial_13_4
34,13,5,0,9,8,719.425,229363,trial_13_5
34,13,6,1,5,5,959.535,230323,trial_13_6
34,13,7,0,4,9,4967.94,235292,trial_13_7
34,13,8,0,3,6,711.16,236004,trial_13_8
34,13,9,0,4,3,6168.04,242174,trial_13_9
34,14,1,0,6,4,5907.81,257591,trial_14_1
34,14,2,0,5,3,319.035,257911,trial_14_2
34,14,3,0,4,7,375.375,258287,trial_14_3
34,14,4,0,7,8,687.59,258975,trial_14_4
34,14,5,0,8,9,399.53,259375,trial_14_5
34,14,6,0,9,6,239.605,259615,trial_14_6
34,14,7,0,3,1,1167.96,260784,trial_14_7
34,14,8,0,1,2,703.135,261488,trial_14_8
35,1,1,0,2,8,1059.71,10965,trial_1_1
35,1,2,1,3,3,215.1,11181,trial_1_2
35,1,3,0,4,9,263.21,11445,trial_1_3
35,2,1,0,2,7,531.55,19814,trial_2_1
35,2,2,0,3,5,183.44,19998,trial_2_2
35,2,3,0,4,1,199.405,20198,trial_2_3
35,2,4,0,5,3,271.395,20470,trial_2_4
35,3,1,0,1,3,676.495,30959,trial_3_1
35,3,2,0,2,8,303.29,31263,trial_3_2
35,3,3,0,3,7,319.415,31583,trial_3_3
35,3,4,0,4,6,399.45,31983,trial_3_4
35,3,5,0,5,2,359.445,32344,trial_3_5
35,4,1,0,1,4,381.41,43666,trial_4_1
35,4,2,0,2,7,223.46,43890,trial_4_2
35,4,3,0,3,8,263.31,44154,trial_4_3
35,4,4,0,4,2,263.58,44418,trial_4_4
35,4,5,0,5,6,215.325,44634,trial_4_5
35,4,6,1,5,5,223.68,44858,trial_4_6
35,5,1,0,1,2,584.395,57875,trial_5_1
35,5,2,0,2,3,351.535,58228,trial_5_2
35,5,3,0,3,5,231.38,58460,trial_5_3
35,5,4,0,4,1,279.37,58740,trial_5_4
35,5,5,0,5,9,231.405,58972,trial_5_5
35,5,6,0,6,8,239.49,59212,trial_5_6
35,5,7,0,7,4,855.6,60068,trial_5_7
35,6,1,0,1,8,606.985,73941,trial_6_1
35,6,2,1,2,2,239.315,74181,trial_6_2
35,6,3,0,3,7,327.465,74510,trial_6_3
35,6,4,1,4,4,311.385,74822,trial_6_4
35,6,5,0,5,9,246.47,75070,trial_6_5
35,6,6,0,6,1,311.205,75382,trial_6_6
35,6,7,0,4,3,423.485,75806,trial_6_7
35,7,1,0,1,5,478.69,88591,trial_7_1
35,7,2,0,3,8,223.29,88815,trial_7_2
35,7,3,0,4,3,255.72,89071,trial_7_3
35,7,4,0,5,7,271.395,89343,trial_7_4
35,7,5,0,6,9,295.44,89639,trial_7_5
35,7,6,0,4,6,279.485,89919,trial_7_6
35,8,1,0,1,5,1344.3,106570,trial_8_1
35,8,2,0,3,7,583.335,107154,trial_8_2
35,8,3,0,3,8,431.405,107586,trial_8_3
35,8,4,0,5,3,279.36,107866,trial_8_4
35,8,5,0,6,4,311.605,108178,trial_8_5
35,8,6,0,4,2,343.525,108522,trial_8_6
35,8,7,0,3,6,287.485,108811,trial_8_7
35,9,1,0,5,3,732.115,118052,trial_9_1
35,9,2,0,4,8,1255.53,119308,trial_9_2
35,9,3,1,2,2,255.325,119564,trial_9_3
35,9,4,0,3,7,375.54,119940,trial_9_4
35,9,5,0,2,1,447.475,120388,trial_9_5
35,9,6,0,1,4,7.37,120396,trial_9_6
35,9,7,0,5,9,399.47,120796,trial_9_7
35,10,1,0,5,4,762.805,134934,trial_10_1
35,10,2,0,3,7,0.08,134935,trial_10_2
35,10,3,0,4,8,0.09,134935,trial_10_3
35,10,4,0,2,5,0.07,134936,trial_10_4
35,10,5,0,5,1,533.92,135470,trial_10_5
35,10,6,0,6,3,0.07,135471,trial_10_6
35,10,7,0,7,6,0.045,135471,trial_10_7
35,10,8,0,7,2,486.355,135958,trial_10_8
35,11,1,0,1,3,490.815,151056,trial_11_1
35,11,2,0,2,5,0.085,151056,trial_11_2
35,11,3,0,3,8,695.215,151752,trial_11_3
35,11,4,0,4,9,0.085,151752,trial_11_4
35,11,5,1,6,6,622.9,152376,trial_11_5
35,11,6,0,5,7,15.515,152392,trial_11_6
35,11,7,0,7,4,615.8,153008,trial_11_7
35,11,8,0,8,1,7.015,153016,trial_11_8
35,12,1,0,1,8,831.405,171227,trial_12_1
35,12,2,0,2,3,0.055,171227,trial_12_2
35,12,3,0,3,9,599.23,171827,trial_12_3
35,12,4,1,4,4,0.05,171827,trial_12_4
35,12,5,0,5,2,703.29,172531,trial_12_5
35,12,6,0,6,1,0.07,172532,trial_12_6
35,12,7,0,8,7,711.045,173243,trial_12_7
35,12,8,0,7,6,175.515,173419,trial_12_8
35,12,9,0,7,5,415.145,173835,trial_12_9
35,13,1,0,1,2,1154.9,191693,trial_13_1
35,13,2,0,2,7,0.085,191694,trial_13_2
35,13,3,0,3,6,619.26,192314,trial_13_3
35,13,4,0,4,5,0.05,192314,trial_13_4
35,13,5,0,5,1,667.355,192982,trial_13_5
35,13,6,0,6,3,0.085,192982,trial_13_6
35,13,7,0,7,8,582.72,193565,trial_13_7
35,13,8,0,8,4,7.4,193573,trial_13_8
35,13,9,1,9,9,687.695,194262,trial_13_9
35,14,1,0,1,9,1148.52,211632,trial_14_1
35,14,2,0,2,7,0.08,211632,trial_14_2
35,14,3,0,3,1,431.09,212064,trial_14_3
35,14,4,0,4,5,0.055,212064,trial_14_4
35,14,5,0,5,4,599.3,212664,trial_14_5
35,14,6,1,6,6,0.055,212664,trial_14_6
35,14,7,0,8,3,743.235,213408,trial_14_7
35,14,8,0,7,8,0.075,213408,trial_14_8
36,1,1,0,2,9,666.85,18073,trial_1_1
36,1,2,0,3,4,199.215,18273,trial_1_2
36,1,3,0,4,7,191.355,18465,trial_1_3
36,2,1,0,2,5,274.64,27562,trial_2_1
36,2,2,0,3,9,207.23,27770,trial_2_2
36,2,3,0,4,7,215.32,27986,trial_2_3
36,2,4,0,5,1,247.58,28234,trial_2_4
36,3,1,0,3,4,136.8,39324,trial_3_1
36,3,2,0,4,7,247.115,39571,trial_3_2
36,3,3,0,5,2,255.42,39828,trial_3_3
36,3,4,0,6,3,230.74,40059,trial_3_4
36,3,5,0,2,9,11128.8,51189,trial_3_5
36,4,1,1,3,3,2969.97,66375,trial_4_1
36,4,2,0,5,7,503.34,66879,trial_4_2
36,4,3,0,2,8,279.475,67159,trial_4_3
36,4,4,0,1,5,239.57,67399,trial_4_4
36,4,5,0,5,4,303.52,67703,trial_4_5
36,4,6,1,6,6,319.345,68023,trial_4_6
36,5,1,0,1,9,483.915,83249,trial_5_1
36,5,2,1,2,2,207.425,83457,trial_5_2
36,5,3,1,4,4,263.665,83721,trial_5_3
36,5,4,0,5,6,271.225,83993,trial_5_4
36,5,5,0,6,5,247.48,84241,trial_5_5
36,5,6,0,4,3,271.47,84513,trial_5_6
36,5,7,0,3,7,255.14,84769,trial_5_7
36,6,1,0,2,9,517.165,98275,trial_6_1
36,6,2,0,3,7,215.335,98491,trial_6_2
36,6,3,0,5,2,327.265,98819,trial_6_3
36,6,4,0,5,3,543.56,99363,trial_6_4
36,6,5,0,3,6,350.305,99715,trial_6_5
36,6,6,0,2,4,311.34,100027,trial_6_6
36,6,7,0,1,8,279.55,100307,trial_6_7
36,7,1,0,3,7,12866.2,127272,trial_7_1
36,7,2,0,4,3,271.015,127544,trial_7_2
36,7,3,0,5,2,223.195,127768,trial_7_3
36,7,4,0,6,5,271.67,128040,trial_7_4
36,7,5,0,7,4,303.53,128344,trial_7_5
36,7,6,0,3,8,535.37,128880,trial_7_6
36,8,1,0,2,8,1135.76,144034,trial_8_1
36,8,2,0,4,5,23.36,144058,trial_8_2
36,8,3,0,3,4,383.62,144442,trial_8_3
36,8,4,0,4,3,7.28,144450,trial_8_4
36,8,5,0,4,2,415.595,144866,trial_8_5
36,8,6,0,5,6,47.385,144914,trial_8_6
36,8,7,0,6,7,327.46,145242,trial_8_7
36,9,1,0,1,2,589.09,160996,trial_9_1
36,9,2,0,2,9,7.29,161004,trial_9_2
36,9,3,1,3,3,711.77,161716,trial_9_3
36,9,4,0,4,5,0.12,161717,trial_9_4
36,9,5,0,5,6,710.875,162428,trial_9_5
36,9,6,0,6,7,0.105,162429,trial_9_6
36,9,7,0,8,1,798.985,163228,trial_9_7
36,10,1,0,1,2,823.42,181231,trial_10_1
36,10,2,0,2,1,7.375,181239,trial_10_2
36,10,3,0,3,6,687.765,181928,trial_10_3
36,10,4,0,4,7,0.085,181928,trial_10_4
36,10,5,1,5,5,662.9,182591,trial_10_5
36,10,6,0,6,3,0.08,182592,trial_10_6
36,10,7,0,7,9,831.205,183424,trial_10_7
36,10,8,0,8,4,7.27,183432,trial_10_8
36,11,1,0,1,7,658.21,201066,trial_11_1
36,11,2,0,2,6,0.12,201067,trial_11_2
36,11,3,0,3,1,718.905,201786,trial_11_3
36,11,4,1,4,4,0.085,201787,trial_11_4
36,11,5,0,5,3,639.01,202426,trial_11_5
36,11,6,0,6,2,0.085,202427,trial_11_6
36,11,7,0,8,5,582.965,203010,trial_11_7
36,11,8,0,7,8,62.675,203074,trial_11_8
36,12,1,0,1,3,867.95,222277,trial_12_1
36,12,2,0,2,9,0.12,222277,trial_12_2
36,12,3,0,2,1,166.835,222444,trial_12_3
36,12,4,0,3,6,487.58,222933,trial_12_4
36,12,5,0,4,7,0.105,222933,trial_12_5
36,12,6,1,5,5,774.985,223709,trial_12_6
36,12,7,0,6,4,0.07,223709,trial_12_7
36,12,8,0,7,8,623.28,224333,trial_12_8
36,12,9,0,8,2,15.18,224349,trial_12_9
36,13,1,0,1,8,888.065,240663,trial_13_1
36,13,2,0,2,6,0.09,240664,trial_13_2
36,13,3,1,3,3,615.035,241279,trial_13_3
36,13,4,0,4,5,0.06,241280,trial_13_4
36,13,5,0,5,9,703.165,241983,trial_13_5
36,13,6,0,6,4,0.085,241984,trial_13_6
36,13,7,0,8,2,663.14,242648,trial_13_7
36,13,8,1,7,7,0.085,242648,trial_13_8
36,13,9,0,9,1,527.05,243176,trial_13_9
36,14,1,0,1,5,762.27,254177,trial_14_1
36,14,2,0,2,8,0.07,254178,trial_14_2
36,14,3,0,3,6,1015.04,255193,trial_14_3
36,14,4,0,4,2,0.08,255194,trial_14_4
36,14,5,0,5,4,598.92,255793,trial_14_5
36,14,6,0,6,1,15.15,255809,trial_14_6
36,14,7,0,8,3,991.91,256801,trial_14_7
36,14,8,1,7,7,0.075,256802,trial_14_8
37,1,1,0,2,5,821.375,32441,trial_1_1
37,1,2,0,3,1,206.855,32649,trial_1_2
37,1,3,0,4,8,191.445,32841,trial_1_3
37,2,1,0,4,3,686.245,43306,trial_2_1
37,2,2,0,5,1,407.165,43714,trial_2_2
37,2,3,0,6,4,335.61,44050,trial_2_3
37,2,4,0,3,2,367.34,44418,trial_2_4
37,3,1,0,2,5,535.895,55164,trial_3_1
37,3,2,0,3,2,214.765,55379,trial_3_2
37,3,3,0,4,6,199.37,55579,trial_3_3
37,3,4,0,5,1,239.225,55819,trial_3_4
37,3,5,0,6,3,239.29,56059,trial_3_5
37,4,1,0,1,7,460.155,66701,trial_4_1
37,4,2,0,3,2,327.29,67029,trial_4_2
37,4,3,0,3,4,319.445,67349,trial_4_3
37,4,4,0,5,9,183.17,67533,trial_4_4
37,4,5,0,5,3,439.455,67973,trial_4_5
37,4,6,1,6,6,15.36,67989,trial_4_6
37,5,1,0,1,8,3115.47,83735,trial_5_1
37,5,2,1,3,3,247.27,83983,trial_5_2
37,5,3,0,4,1,255.49,84239,trial_5_3
37,5,4,0,5,2,335.365,84575,trial_5_4
37,5,5,0,2,5,311.37,84887,trial_5_5
37,5,6,0,1,9,279.38,85167,trial_5_6
37,5,7,0,5,4,447.48,85615,trial_5_7
37,6,1,0,2,8,394.75,99785,trial_6_1
37,6,2,0,3,5,207.445,99993,trial_6_2
37,6,3,0,4,1,255.55,100249,trial_6_3
37,6,4,0,5,2,439.35,100689,trial_6_4
37,6,5,0,3,9,310.435,101001,trial_6_5
37,6,6,0,2,7,239.395,101241,trial_6_6
37,6,7,0,5,4,359.685,101601,trial_6_7
37,7,1,0,2,3,1823.01,117444,trial_7_1
37,7,2,0,3,4,183.36,117628,trial_7_2
37,7,3,0,4,9,319.465,117949,trial_7_3
37,7,4,0,5,1,383.28,118332,trial_7_4
37,7,5,0,6,5,335.615,118669,trial_7_5
37,7,6,0,7,6,375.505,119045,trial_7_6
37,8,1,0,2,8,9634.26,143256,trial_8_1
37,8,2,0,3,9,311.285,143568,trial_8_2
37,8,3,0,4,5,0.09,143568,trial_8_3
37,8,4,1,4,4,294.91,143863,trial_8_4
37,8,5,0,3,2,255.56,144120,trial_8_5
37,8,6,0,1,7,391.56,144512,trial_8_6
37,8,7,0,2,3,0.065,144512,trial_8_7
37,9,1,0,6,7,804.96,161178,trial_9_1
37,9,2,0,5,4,799.525,161978,trial_9_2
37,9,3,0,6,8,0.155,161979,trial_9_3
37,9,4,0,4,3,279.0,162258,trial_9_4
37,9,5,0,3,1,7.065,162266,trial_9_5
37,9,6,0,3,9,303.725,162570,trial_9_6
37,9,7,0,5,6,311.32,162882,trial_9_7
37,10,1,1,1,1,1031.38,180789,trial_10_1
37,10,2,0,2,8,15.33,180805,trial_10_2
37,10,3,0,4,9,615.645,181421,trial_10_3
37,10,4,0,3,2,7.345,181429,trial_10_4
37,10,5,1,6,6,695.645,182125,trial_10_5
37,10,6,1,5,5,7.29,182133,trial_10_6
37,10,7,0,8,3,711.705,182845,trial_10_7
37,10,8,1,7,7,15.47,182861,trial_10_8
37,11,1,0,9,4,881.26,200503,trial_11_1
37,11,2,0,8,1,7.545,200511,trial_11_2
37,11,3,0,7,8,735.575,201247,trial_11_3
37,11,4,0,6,9,47.43,201295,trial_11_4
37,11,5,0,4,3,655.405,201951,trial_11_5
37,11,6,0,5,6,23.385,201975,trial_11_6
37,11,7,0,2,5,775.605,202752,trial_11_7
37,11,8,0,3,7,22.655,202776,trial_11_8
37,12,1,0,1,7,887.845,221954,trial_12_1
37,12,2,0,2,3,15.39,221970,trial_12_2
37,12,3,0,3,4,575.665,222546,trial_12_3
37,12,4,0,4,5,0.045,222546,trial_12_4
37,12,5,0,5,9,663.58,223210,trial_12_5
37,12,6,0,6,8,0.165,223211,trial_12_6
37,12,7,0,7,1,662.795,223874,trial_12_7
37,12,8,0,8,2,359.53,224234,trial_12_8
37,12,9,0,7,6,695.785,224930,trial_12_9
37,13,1,0,1,4,614.36,243293,trial_13_1
37,13,2,0,2,9,0.08,243294,trial_13_2
37,13,3,0,3,8,615.015,243909,trial_13_3
37,13,4,0,4,5,7.375,243917,trial_13_4
37,13,5,0,5,6,759.62,244677,trial_13_5
37,13,6,0,6,7,0.075,244678,trial_13_6
37,13,7,0,8,1,719.395,245398,trial_13_7
37,13,8,0,7,2,0.065,245398,trial_13_8
37,13,9,0,9,3,718.935,246117,trial_13_9
37,14,1,0,1,8,14482.7,276105,trial_14_1
37,14,2,1,2,2,0.135,276106,trial_14_2
37,14,3,0,3,4,575.085,276681,trial_14_3
37,14,4,0,4,7,0.07,276682,trial_14_4
37,14,5,0,5,3,687.07,277369,trial_14_5
37,14,6,0,6,1,0.07,277370,trial_14_6
37,14,7,0,8,5,775.25,278146,trial_14_7
37,14,8,0,7,6,0.055,278146,trial_14_8
38,1,1,0,2,7,580.47,30247,trial_1_1
38,1,2,0,3,6,207.185,30455,trial_1_2
38,1,3,0,4,3,183.405,30639,trial_1_3
38,2,1,0,3,1,148.905,39904,trial_2_1
38,2,2,0,2,7,599.37,40504,trial_2_2
38,2,3,0,3,8,199.195,40704,trial_2_3
38,2,4,0,4,6,199.355,40904,trial_2_4
38,3,1,0,5,1,213.705,51970,trial_3_1
38,3,2,0,6,7,222.74,52193,trial_3_2
38,3,3,0,2,8,11776.8,63972,trial_3_3
38,3,4,1,3,3,223.22,64196,trial_3_4
38,3,5,0,4,6,215.17,64412,trial_3_5
38,4,1,0,1,8,1707.06,79462,trial_4_1
38,4,2,0,3,7,255.31,79718,trial_4_2
38,4,3,0,5,2,271.31,79990,trial_4_3
38,4,4,0,6,5,287.47,80278,trial_4_4
38,4,5,0,6,1,319.45,80598,trial_4_5
38,4,6,1,3,3,255.37,80854,trial_4_6
38,5,1,0,2,4,486.875,96392,trial_5_1
38,5,2,1,3,3,191.32,96584,trial_5_2
38,5,3,0,4,8,231.36,96816,trial_5_3
38,5,4,0,1,2,319.43,97136,trial_5_4
38,5,5,0,1,7,191.285,97328,trial_5_5
38,5,6,0,5,1,319.52,97648,trial_5_6
38,5,7,0,4,5,231.4,97880,trial_5_7
38,6,1,1,2,2,387.245,112858,trial_6_1
38,6,2,0,3,4,503.725,113362,trial_6_2
38,6,3,0,4,3,319.28,113682,trial_6_3
38,6,4,0,5,7,319.34,114002,trial_6_4
38,6,5,1,6,6,310.31,114314,trial_6_5
38,6,6,0,4,5,359.38,114674,trial_6_6
38,6,7,0,3,1,303.32,114978,trial_6_7
38,7,1,0,2,7,11402.2,140158,trial_7_1
38,7,2,0,4,5,247.325,140406,trial_7_2
38,7,3,0,5,1,327.32,140734,trial_7_3
38,7,4,0,6,3,279.635,141015,trial_7_4
38,7,5,0,7,6,0.095,141015,trial_7_5
38,7,6,1,4,4,286.745,141303,trial_7_6
38,8,1,0,5,8,915.065,157673,trial_8_1
38,8,2,0,6,7,0.1,157673,trial_8_2
38,8,3,0,4,5,614.765,158288,trial_8_3
38,8,4,0,3,6,7.53,158296,trial_8_4
38,8,5,1,2,2,407.705,158705,trial_8_5
38,8,6,0,3,1,15.19,158721,trial_8_6
38,8,7,0,4,9,7.6,158729,trial_8_7
38,9,1,0,1,6,1430.24,175891,trial_9_1
38,9,2,0,2,7,71.575,175963,trial_9_2
38,9,3,0,3,4,879.5,176843,trial_9_3
38,9,4,0,4,1,15.29,176859,trial_9_4
38,9,5,0,5,9,703.73,177563,trial_9_5
38,9,6,0,6,3,0.115,177564,trial_9_6
38,9,7,1,8,8,638.99,178204,trial_9_7
38,10,1,0,3,8,1199.19,196158,trial_10_1
38,10,2,0,1,9,903.5,197062,trial_10_2
38,10,3,0,2,1,0.095,197063,trial_10_3
38,10,4,0,5,3,647.045,197710,trial_10_4
38,10,5,0,4,7,0.065,197711,trial_10_5
38,10,6,0,4,6,87.015,197798,trial_10_6
38,10,7,0,6,4,527.52,198326,trial_10_7
38,10,8,0,7,2,0.065,198327,trial_10_8
38,11,1,1,1,1,697.36,216280,trial_11_1
38,11,2,0,2,9,0.07,216281,trial_11_2
38,11,3,0,3,6,567.26,216849,trial_11_3
38,11,4,0,4,7,0.065,216849,trial_11_4
38,11,5,0,6,2,663.36,217513,trial_11_5
38,11,6,0,5,8,7.215,217521,trial_11_6
38,11,7,0,8,4,678.9,218201,trial_11_7
38,11,8,0,7,3,15.565,218217,trial_11_8
38,12,1,0,1,6,605.1,237363,trial_12_1
38,12,2,1,2,2,0.095,237364,trial_12_2
38,12,3,1,3,3,631.08,237995,trial_12_3
38,12,4,0,4,9,0.095,237996,trial_12_4
38,12,5,0,5,4,767.045,238763,trial_12_5
38,12,6,0,6,5,0.085,238764,trial_12_6
38,12,7,0,8,7,734.97,239499,trial_12_7
38,12,8,0,7,8,7.56,239507,trial_12_8
38,12,9,0,7,1,447.57,239955,trial_12_9
38,13,1,0,1,9,10978.3,269736,trial_13_1
38,13,2,0,2,4,0.115,269737,trial_13_2
38,13,3,0,3,7,1038.86,270776,trial_13_3
38,13,4,0,4,3,0.06,270776,trial_13_4
38,13,5,0,5,6,959.285,271736,trial_13_5
38,13,6,0,6,2,0.165,271737,trial_13_6
38,13,7,0,8,1,686.93,272424,trial_13_7
38,13,8,0,7,5,0.085,272425,trial_13_8
38,13,9,0,9,8,734.77,273160,trial_13_9
38,14,1,0,1,3,891.04,287562,trial_14_1
38,14,2,0,2,7,0.115,287563,trial_14_2
38,14,3,0,3,5,551.02,288114,trial_14_3
38,14,4,0,4,9,7.22,288122,trial_14_4
38,14,5,0,5,1,623.965,288746,trial_14_5
38,14,6,0,6,8,0.085,288747,trial_14_6
38,14,7,0,8,2,582.905,289330,trial_14_7
38,14,8,0,7,4,0.09,289331,trial_14_8
