id_sujet,serie,trial,item,correct,key_press,correct_response,rt,time_elapsed,test_part
2,1,1,1,1.0,4,4,2085.09,104750,trial_1_1_1
2,1,1,2,1.0,9,9,719.27,105470,trial_1_1_2
2,1,1,3,1.0,2,2,1021.47,106492,trial_1_1_3
2,1,2,1,1.0,4,4,1980.94,113979,trial_1_2_1
2,1,2,2,1.0,3,3,912.82,114892,trial_1_2_2
2,1,2,3,1.0,8,8,719.475,115612,trial_1_2_3
2,1,2,4,,2,6,813.365,116426,trial_1_2_4
2,1,3,1,1.0,4,4,1401.61,124335,trial_1_3_1
2,1,3,2,1.0,2,2,873.77,125210,trial_1_3_2
2,1,3,3,1.0,8,8,731.435,125942,trial_1_3_3
2,1,3,4,1.0,6,6,1527.59,127470,trial_1_3_4
2,1,3,5,1.0,1,1,845.495,128316,trial_1_3_5
2,1,4,1,1.0,5,5,1580.61,137406,trial_1_4_1
2,1,4,2,1.0,2,2,788.75,138195,trial_1_4_2
2,1,4,3,,6,1,769.425,138966,trial_1_4_3
2,1,4,4,,1,4,779.13,139746,trial_1_4_4
2,1,4,5,1.0,7,7,639.41,140386,trial_1_4_5
2,1,4,6,1.0,8,8,4065.66,144452,trial_1_4_6
2,1,5,1,1.0,1,1,1167.77,154130,trial_1_5_1
2,1,5,2,1.0,6,6,1162.88,155293,trial_1_5_2
2,1,5,3,1.0,5,5,541.435,155835,trial_1_5_3
2,1,5,4,,7,8,1087.54,156923,trial_1_5_4
2,1,5,5,,8,9,739.55,157663,trial_1_5_5
2,1,5,6,,9,7,983.34,158647,trial_1_5_6
2,1,5,7,,2,3,1419.58,160067,trial_1_5_7
2,1,6,1,1.0,7,7,1500.56,170076,trial_1_6_1
2,1,6,2,1.0,3,3,928.725,171005,trial_1_6_2
2,1,6,3,,9,1,939.445,171945,trial_1_6_3
2,1,6,4,1.0,5,5,2819.67,174765,trial_1_6_4
2,1,6,5,,2,6,1515.52,176281,trial_1_6_5
2,1,6,6,,1,9,610.275,176893,trial_1_6_6
2,1,6,7,,3,4,5953.38,182847,trial_1_6_7
2,1,7,1,1.0,1,1,1221.17,191581,trial_1_7_1
2,1,7,2,,8,9,1366.31,192948,trial_1_7_2
2,1,7,3,,2,8,1078.53,194027,trial_1_7_3
2,1,7,4,,5,2,2884.63,196912,trial_1_7_4
2,1,7,5,,6,7,427.395,197340,trial_1_7_5
2,1,7,6,,7,5,1789.5,199130,trial_1_7_6
2,1,8,1,,1,9,2228.3,209867,trial_1_8_1
2,1,8,2,,2,1,583.49,210451,trial_1_8_2
2,1,8,3,,3,2,620.61,211072,trial_1_8_3
2,1,8,4,,6,3,865.415,211938,trial_1_8_4
2,1,8,5,,7,6,2239.6,214178,trial_1_8_5
2,1,8,6,,8,7,511.665,214690,trial_1_8_6
2,1,8,7,,9,5,6014.27,220706,trial_1_8_7
2,1,9,1,1.0,5,5,1254.75,230472,trial_1_9_1
2,1,9,2,1.0,1,1,834.365,231307,trial_1_9_2
2,1,9,3,,7,9,726.74,232035,trial_1_9_3
2,1,9,4,,9,4,747.53,232783,trial_1_9_4
2,1,9,5,,3,8,829.495,233613,trial_1_9_5
2,1,9,6,,5,7,671.45,234285,trial_1_9_6
2,1,9,7,,8,3,2891.58,237177,trial_1_9_7
2,1,10,1,1.0,2,2,397.365,247083,trial_1_10_1
2,1,10,2,,3,9,1670.85,248754,trial_1_10_2
2,1,10,3,,6,3,1369.64,250125,trial_1_10_3
2,1,10,4,,5,6,585.43,250711,trial_1_10_4
2,1,10,5,,3,8,551.545,251263,trial_1_10_5
2,1,10,6,,8,7,569.485,251833,trial_1_10_6
2,1,10,7,,7,1,2995.62,254829,trial_1_10_7
2,1,10,8,1.0,5,5,7007.32,261837,trial_1_10_8
2,1,11,1,1.0,1,1,822.255,272175,trial_1_11_1
2,1,11,2,1.0,8,8,899.99,273076,trial_1_11_2
2,1,11,3,1.0,9,9,559.3,273636,trial_1_11_3
2,1,11,4,1.0,3,3,725.49,274362,trial_1_11_4
2,1,11,5,1.0,7,7,797.465,275160,trial_1_11_5
2,1,11,6,1.0,2,2,1293.41,276454,trial_1_11_6
2,1,11,7,,5,4,669.57,277124,trial_1_11_7
2,1,11,8,,4,6,4143.65,281268,trial_1_11_8
2,1,12,1,1.0,1,1,1430.11,293207,trial_1_12_1
2,1,12,2,1.0,2,2,427.5,293635,trial_1_12_2
2,1,12,3,,3,6,1466.24,295102,trial_1_12_3
2,1,12,4,,7,5,1534.79,296638,trial_1_12_4
2,1,12,5,,6,9,565.495,297204,trial_1_12_5
2,1,12,6,,8,7,923.47,298128,trial_1_12_6
2,1,12,7,,7,8,1561.57,299690,trial_1_12_7
2,1,12,8,1.0,4,4,1807.52,301498,trial_1_12_8
2,1,12,9,,5,3,4047.32,305546,trial_1_12_9
2,1,13,1,1.0,6,6,1366.94,317422,trial_1_13_1
2,1,13,2,1.0,7,7,689.83,318113,trial_1_13_2
2,1,13,3,1.0,3,3,640.495,318754,trial_1_13_3
2,1,13,4,,1,5,752.475,319507,trial_1_13_4
2,1,13,5,,5,1,2181.52,321689,trial_1_13_5
2,1,13,6,,6,9,733.515,322423,trial_1_13_6
2,1,13,7,,3,4,2429.66,324853,trial_1_13_7
2,1,13,8,1.0,8,8,2792.17,327646,trial_1_13_8
2,1,13,9,,4,2,3089.02,330735,trial_1_13_9
2,1,14,1,1.0,9,9,3197.66,343447,trial_1_14_1
2,1,14,2,,1,8,1269.45,344717,trial_1_14_2
2,1,14,3,,2,1,477.345,345195,trial_1_14_3
2,1,14,4,,3,6,529.455,345725,trial_1_14_4
2,1,14,5,,6,3,1793.6,347520,trial_1_14_5
2,1,14,6,,7,5,607.44,348128,trial_1_14_6
2,1,14,7,,8,2,661.43,348790,trial_1_14_7
2,1,14,8,,4,7,1355.6,350146,trial_1_14_8
2,2,1,1,1.0,1,1,1111.19,398840,trial_2_1_1
2,2,1,2,1.0,2,2,525.36,399366,trial_2_1_2
2,2,1,3,,3,5,453.49,399820,trial_2_1_3
2,2,2,1,1.0,3,3,1647.42,406975,trial_2_2_1
2,2,2,2,1.0,5,5,794.815,407771,trial_2_2_2
2,2,2,3,1.0,4,4,519.44,408291,trial_2_2_3
2,2,2,4,1.0,8,8,1143.56,409435,trial_2_2_4
2,2,3,1,1.0,2,2,1378.23,417319,trial_2_3_1
2,2,3,2,1.0,7,7,785.875,418105,trial_2_3_2
2,2,3,3,1.0,8,8,1164.47,419270,trial_2_3_3
2,2,3,4,1.0,3,3,1451.56,420722,trial_2_3_4
2,2,3,5,,1,5,2695.5,423419,trial_2_3_5
2,2,4,1,1.0,5,5,1542.54,432469,trial_2_4_1
2,2,4,2,1.0,6,6,436.68,432906,trial_2_4_2
2,2,4,3,,7,9,667.525,433574,trial_2_4_3
2,2,4,4,,9,2,747.47,434322,trial_2_4_4
2,2,4,5,,2,4,1011.54,435334,trial_2_4_5
2,2,4,6,,1,7,753.55,436088,trial_2_4_6
2,2,5,1,1.0,5,5,3281.8,447882,trial_2_5_1
2,2,5,2,1.0,8,8,649.595,448532,trial_2_5_2
2,2,5,3,1.0,4,4,1577.54,450110,trial_2_5_3
2,2,5,4,,2,6,1579.46,451690,trial_2_5_4
2,2,5,5,1.0,1,1,1003.43,452694,trial_2_5_5
2,2,5,6,1.0,7,7,1515.68,454210,trial_2_5_6
2,2,5,7,,3,2,3848.26,458059,trial_2_5_7
2,2,6,1,,7,9,1857.86,468429,trial_2_6_1
2,2,6,2,,1,7,868.78,469298,trial_2_6_2
2,2,6,3,,6,1,751.55,470050,trial_2_6_3
2,2,6,4,,3,6,1669.54,471720,trial_2_6_4
2,2,6,5,,5,3,497.57,472218,trial_2_6_5
2,2,6,6,,2,4,2468.56,474687,trial_2_6_6
2,2,6,7,,8,5,3025.52,477714,trial_2_6_7
2,2,7,1,1.0,4,4,544.78,485767,trial_2_7_1
2,2,7,2,1.0,6,6,724.955,486492,trial_2_7_2
2,2,7,3,1.0,1,1,657.435,487150,trial_2_7_3
2,2,7,4,1.0,8,8,1269.45,488420,trial_2_7_4
2,2,7,5,,7,2,514.42,488935,trial_2_7_5
2,2,7,6,,2,7,1813.56,490749,trial_2_7_6
2,2,8,1,,1,5,715.74,499974,trial_2_8_1
2,2,8,2,,3,1,690.98,500666,trial_2_8_2
2,2,8,3,,9,3,1403.43,502070,trial_2_8_3
2,2,8,4,,5,6,737.515,502808,trial_2_8_4
2,2,8,5,,7,2,1011.42,503820,trial_2_8_5
2,2,8,6,,3,7,1024.44,504845,trial_2_8_6
2,2,8,7,,5,8,2905.62,507751,trial_2_8_7
2,2,9,1,,8,6,314.45,516575,trial_2_9_1
2,2,9,2,,7,8,753.575,517330,trial_2_9_2
2,2,9,3,,6,7,865.455,518196,trial_2_9_3
2,2,9,4,1.0,5,5,637.48,518834,trial_2_9_4
2,2,9,5,,1,9,685.555,519520,trial_2_9_5
2,2,9,6,,3,1,657.455,520178,trial_2_9_6
2,2,9,7,1.0,2,2,1688.52,521867,trial_2_9_7
2,2,10,1,1.0,8,8,395.21,531772,trial_2_10_1
2,2,10,2,1.0,2,2,1086.79,532859,trial_2_10_2
2,2,10,3,1.0,5,5,913.545,533773,trial_2_10_3
2,2,10,4,1.0,6,6,575.505,534349,trial_2_10_4
2,2,10,5,,2,1,1150.49,535500,trial_2_10_5
2,2,10,6,,8,4,893.575,536395,trial_2_10_6
2,2,10,7,1.0,7,7,491.39,536887,trial_2_10_7
2,2,10,8,,4,3,2655.64,539543,trial_2_10_8
2,2,11,1,1.0,9,9,374.035,549426,trial_2_11_1
2,2,11,2,1.0,2,2,871.795,550298,trial_2_11_2
2,2,11,3,1.0,4,4,851.56,551150,trial_2_11_3
2,2,11,4,1.0,5,5,1921.49,553072,trial_2_11_4
2,2,11,5,1.0,6,6,697.565,553770,trial_2_11_5
2,2,11,6,1.0,7,7,569.475,554340,trial_2_11_6
2,2,11,7,,2,1,969.615,555311,trial_2_11_7
2,2,11,8,1.0,3,3,1677.51,556989,trial_2_11_8
2,2,12,1,1.0,4,4,1221.22,568723,trial_2_12_1
2,2,12,2,1.0,6,6,752.975,569476,trial_2_12_2
2,2,12,3,1.0,3,3,617.4,570094,trial_2_12_3
2,2,12,4,1.0,1,1,803.475,570898,trial_2_12_4
2,2,12,5,,7,2,465.46,571364,trial_2_12_5
2,2,12,6,,8,7,1389.59,572754,trial_2_12_6
2,2,12,7,,2,9,1176.99,573933,trial_2_12_7
2,2,12,8,,3,5,1929.48,575863,trial_2_12_8
2,2,12,9,,7,8,2553.62,578417,trial_2_12_9
2,2,13,1,1.0,3,3,1126.89,590053,trial_2_13_1
2,2,13,2,1.0,1,1,888.865,590942,trial_2_13_2
2,2,13,3,1.0,7,7,675.79,591619,trial_2_13_3
2,2,13,4,,5,2,1133.26,592752,trial_2_13_4
2,2,13,5,1.0,6,6,595.445,593348,trial_2_13_5
2,2,13,6,,7,5,993.595,594343,trial_2_13_6
2,2,13,7,,8,4,435.525,594779,trial_2_13_7
2,2,13,8,,2,9,3234.52,598014,trial_2_13_8
2,2,13,9,1.0,8,8,1815.33,599830,trial_2_13_9
2,2,14,1,1.0,3,3,618.38,609957,trial_2_14_1
2,2,14,2,1.0,4,4,640.825,610598,trial_2_14_2
2,2,14,3,1.0,8,8,1033.41,611632,trial_2_14_3
2,2,14,4,1.0,5,5,804.65,612438,trial_2_14_4
2,2,14,5,1.0,2,2,1161.41,613600,trial_2_14_5
2,2,14,6,,7,1,1627.52,615228,trial_2_14_6
2,2,14,7,,6,7,803.46,616032,trial_2_14_7
2,2,14,8,,2,9,1999.39,618032,trial_2_14_8
2,3,1,1,1.0,6,6,1569.18,667155,trial_3_1_1
2,3,1,2,1.0,3,3,446.71,667603,trial_3_1_2
2,3,1,3,1.0,9,9,791.56,668395,trial_3_1_3
2,3,2,1,1.0,7,7,1460.15,675363,trial_3_2_1
2,3,2,2,1.0,5,5,1078.81,676442,trial_3_2_2
2,3,2,3,1.0,3,3,593.495,677036,trial_3_2_3
2,3,2,4,1.0,2,2,729.635,677767,trial_3_2_4
2,3,3,1,1.0,7,7,1236.18,685510,trial_3_3_1
2,3,3,2,1.0,3,3,848.815,686359,trial_3_3_2
2,3,3,3,1.0,5,5,527.36,686887,trial_3_3_3
2,3,3,4,1.0,8,8,975.59,687863,trial_3_3_4
2,3,3,5,1.0,4,4,429.435,688293,trial_3_3_5
2,3,4,1,1.0,1,1,1090.28,696893,trial_3_4_1
2,3,4,2,1.0,6,6,1444.81,698339,trial_3_4_2
2,3,4,3,1.0,8,8,1119.51,699459,trial_3_4_3
2,3,4,4,1.0,3,3,613.475,700073,trial_3_4_4
2,3,4,5,,7,5,673.49,700747,trial_3_4_5
2,3,4,6,,3,7,2195.54,702943,trial_3_4_6
2,3,5,1,1.0,1,1,574.76,712027,trial_3_5_1
2,3,5,2,1.0,2,2,656.935,712685,trial_3_5_2
2,3,5,3,1.0,5,5,739.425,713425,trial_3_5_3
2,3,5,4,,8,3,827.53,714253,trial_3_5_4
2,3,5,5,,3,7,1157.4,715411,trial_3_5_5
2,3,5,6,,8,9,743.475,716155,trial_3_5_6
2,3,5,7,,7,8,381.44,716537,trial_3_5_7
2,3,6,1,1.0,1,1,938.105,725983,trial_3_6_1
2,3,6,2,1.0,6,6,1066.89,727050,trial_3_6_2
2,3,6,3,1.0,9,9,903.545,727954,trial_3_6_3
2,3,6,4,1.0,5,5,609.45,728564,trial_3_6_4
2,3,6,5,1.0,8,8,797.38,729363,trial_3_6_5
2,3,6,6,1.0,2,2,1041.48,730405,trial_3_6_6
2,3,6,7,1.0,3,3,2939.54,733345,trial_3_6_7
2,3,7,1,1.0,2,2,1721.65,742577,trial_3_7_1
2,3,7,2,1.0,6,6,682.795,743260,trial_3_7_2
2,3,7,3,1.0,4,4,563.505,743824,trial_3_7_3
2,3,7,4,1.0,8,8,1053.5,744878,trial_3_7_4
2,3,7,5,1.0,5,5,917.48,745796,trial_3_7_5
2,3,7,6,1.0,3,3,447.545,746244,trial_3_7_6
2,3,8,1,1.0,1,1,934.705,755691,trial_3_8_1
2,3,8,2,1.0,8,8,861.79,756553,trial_3_8_2
2,3,8,3,1.0,9,9,662.43,757216,trial_3_8_3
2,3,8,4,1.0,4,4,629.46,757846,trial_3_8_4
2,3,8,5,1.0,5,5,583.43,758430,trial_3_8_5
2,3,8,6,1.0,3,3,1301.54,759732,trial_3_8_6
2,3,8,7,,7,2,971.43,760704,trial_3_8_7
2,3,9,1,1.0,5,5,1300.25,770512,trial_3_9_1
2,3,9,2,1.0,6,6,714.465,771227,trial_3_9_2
2,3,9,3,1.0,4,4,816.565,772044,trial_3_9_3
2,3,9,4,1.0,3,3,1328.54,773373,trial_3_9_4
2,3,9,5,,8,1,857.45,774231,trial_3_9_5
2,3,9,6,,7,9,357.38,774589,trial_3_9_6
2,3,9,7,,2,7,673.315,775263,trial_3_9_7
2,3,10,1,1.0,6,6,1402.89,786179,trial_3_10_1
2,3,10,2,1.0,1,1,804.86,786985,trial_3_10_2
2,3,10,3,1.0,4,4,607.575,787593,trial_3_10_3
2,3,10,4,1.0,2,2,1515.42,789109,trial_3_10_4
2,3,10,5,1.0,7,7,841.5,789951,trial_3_10_5
2,3,10,6,1.0,8,8,637.505,790589,trial_3_10_6
2,3,10,7,1.0,9,9,661.195,791251,trial_3_10_7
2,3,10,8,,3,5,1233.44,792485,trial_3_10_8
2,3,11,1,1.0,2,2,1142.15,803141,trial_3_11_1
2,3,11,2,1.0,3,3,665.0,803807,trial_3_11_2
2,3,11,3,1.0,6,6,959.305,804767,trial_3_11_3
2,3,11,4,,8,9,735.535,805503,trial_3_11_4
2,3,11,5,1.0,7,7,2159.52,807663,trial_3_11_5
2,3,11,6,,9,8,717.45,808381,trial_3_11_6
2,3,11,7,,6,4,809.415,809191,trial_3_11_7
2,3,11,8,1.0,5,5,275.505,809467,trial_3_11_8
2,3,12,1,1.0,8,8,1756.72,821739,trial_3_12_1
2,3,12,2,,9,2,624.865,822365,trial_3_12_2
2,3,12,3,1.0,1,1,1007.59,823373,trial_3_12_3
2,3,12,4,1.0,7,7,1079.44,824453,trial_3_12_4
2,3,12,5,,9,3,2233.54,826687,trial_3_12_5
2,3,12,6,1.0,5,5,909.085,827597,trial_3_12_6
2,3,12,7,,3,9,556.41,828154,trial_3_12_7
2,3,12,8,1.0,4,4,2625.65,830781,trial_3_12_8
2,3,12,9,,2,6,2216.0,832997,trial_3_12_9
2,3,13,1,1.0,3,3,1301.54,844809,trial_3_13_1
2,3,13,2,1.0,8,8,1136.86,845946,trial_3_13_2
2,3,13,3,1.0,5,5,875.65,846822,trial_3_13_3
2,3,13,4,1.0,2,2,869.415,847692,trial_3_13_4
2,3,13,5,,7,4,619.45,848312,trial_3_13_5
2,3,13,6,,6,1,1941.62,850255,trial_3_13_6
2,3,13,7,1.0,9,9,459.365,850715,trial_3_13_7
2,3,13,8,,2,6,849.36,851565,trial_3_13_8
2,3,13,9,,6,7,3580.38,855146,trial_3_13_9
2,3,14,1,1.0,8,8,822.395,865479,trial_3_14_1
2,3,14,2,1.0,9,9,702.865,866182,trial_3_14_2
2,3,14,3,,2,1,807.53,866990,trial_3_14_3
2,3,14,4,,1,7,685.09,867676,trial_3_14_4
2,3,14,5,,6,2,685.515,868362,trial_3_14_5
2,3,14,6,,5,6,413.395,868776,trial_3_14_6
2,3,14,7,,7,5,373.46,869150,trial_3_14_7
2,3,14,8,1.0,3,3,2273.7,871425,trial_3_14_8
2,4,1,1,1.0,1,1,1466.77,913625,trial_4_1_1
2,4,1,2,1.0,8,8,1150.8,914776,trial_4_1_2
2,4,1,3,1.0,2,2,653.42,915430,trial_4_1_3
2,4,2,1,1.0,6,6,2216.57,923153,trial_4_2_1
2,4,2,2,1.0,1,1,644.305,923798,trial_4_2_2
2,4,2,3,1.0,3,3,794.595,924593,trial_4_2_3
2,4,2,4,1.0,5,5,655.515,925249,trial_4_2_4
2,4,3,1,1.0,3,3,2296.92,934054,trial_4_3_1
2,4,3,2,1.0,2,2,608.795,934664,trial_4_3_2
2,4,3,3,1.0,6,6,595.23,935260,trial_4_3_3
2,4,3,4,1.0,4,4,674.495,935935,trial_4_3_4
2,4,3,5,1.0,7,7,927.5,936863,trial_4_3_5
2,4,4,1,1.0,3,3,1452.21,945822,trial_4_4_1
2,4,4,2,1.0,1,1,626.685,946449,trial_4_4_2
2,4,4,3,1.0,2,2,1473.51,947924,trial_4_4_3
2,4,4,4,,8,9,1241.47,949166,trial_4_4_4
2,4,4,5,1.0,5,5,762.51,949929,trial_4_4_5
2,4,4,6,,7,4,780.535,950710,trial_4_4_6
2,4,5,1,1.0,4,4,1778.3,960996,trial_4_5_1
2,4,5,2,1.0,8,8,1230.86,962228,trial_4_5_2
2,4,5,3,1.0,7,7,421.485,962650,trial_4_5_3
2,4,5,4,1.0,2,2,1071.5,963722,trial_4_5_4
2,4,5,5,1.0,3,3,521.44,964244,trial_4_5_5
2,4,5,6,1.0,1,1,705.55,964950,trial_4_5_6
2,4,5,7,1.0,9,9,539.525,965490,trial_4_5_7
2,4,6,1,1.0,1,1,946.65,974948,trial_4_6_1
2,4,6,2,1.0,2,2,908.55,975857,trial_4_6_2
2,4,6,3,,8,9,965.41,976823,trial_4_6_3
2,4,6,4,1.0,5,5,1893.47,978717,trial_4_6_4
2,4,6,5,1.0,8,8,1657.53,980375,trial_4_6_5
2,4,6,6,,1,3,837.56,981214,trial_4_6_6
2,4,6,7,,2,7,444.4,981658,trial_4_6_7
2,4,7,1,1.0,4,4,2114.93,991284,trial_4_7_1
2,4,7,2,1.0,9,9,1234.49,992519,trial_4_7_2
2,4,7,3,1.0,6,6,763.385,993283,trial_4_7_3
2,4,7,4,1.0,2,2,1215.55,994499,trial_4_7_4
2,4,7,5,1.0,7,7,1515.61,996015,trial_4_7_5
2,4,7,6,1.0,1,1,499.27,996515,trial_4_7_6
2,4,8,1,1.0,8,8,826.97,1005854,trial_4_8_1
2,4,8,2,1.0,7,7,363.73,1006219,trial_4_8_2
2,4,8,3,1.0,9,9,1173.47,1007393,trial_4_8_3
2,4,8,4,1.0,4,4,669.535,1008063,trial_4_8_4
2,4,8,5,,7,6,663.47,1008727,trial_4_8_5
2,4,8,6,,5,1,537.435,1009265,trial_4_8_6
2,4,8,7,,1,5,475.46,1009741,trial_4_8_7
2,4,9,1,1.0,4,4,1584.78,1019839,trial_4_9_1
2,4,9,2,,9,7,1198.78,1021039,trial_4_9_2
2,4,9,3,1.0,1,1,823.43,1021863,trial_4_9_3
2,4,9,4,1.0,3,3,1343.53,1023207,trial_4_9_4
2,4,9,5,,7,9,1011.47,1024219,trial_4_9_5
2,4,9,6,,4,8,3007.62,1027227,trial_4_9_6
2,4,9,7,,8,5,2468.65,1029696,trial_4_9_7
2,4,10,1,1.0,1,1,986.835,1040197,trial_4_10_1
2,4,10,2,1.0,6,6,1026.48,1041225,trial_4_10_2
2,4,10,3,1.0,7,7,689.545,1041915,trial_4_10_3
2,4,10,4,1.0,8,8,777.58,1042693,trial_4_10_4
2,4,10,5,,6,4,2526.69,1045220,trial_4_10_5
2,4,10,6,1.0,5,5,447.28,1045668,trial_4_10_6
2,4,10,7,,7,3,977.48,1046646,trial_4_10_7
2,4,10,8,,3,9,635.51,1047282,trial_4_10_8
2,4,11,1,1.0,2,2,1741.63,1058534,trial_4_11_1
2,4,11,2,1.0,3,3,492.515,1059028,trial_4_11_2
2,4,11,3,1.0,5,5,563.5,1059592,trial_4_11_3
2,4,11,4,1.0,4,4,413.475,1060006,trial_4_11_4
2,4,11,5,1.0,7,7,1025.54,1061032,trial_4_11_5
2,4,11,6,1.0,8,8,609.49,1061642,trial_4_11_6
2,4,11,7,,2,6,953.46,1062596,trial_4_11_7
2,4,11,8,,6,1,1327.55,1063924,trial_4_11_8
2,4,12,1,,4,7,1654.55,1076088,trial_4_12_1
2,4,12,2,,2,3,502.74,1076591,trial_4_12_2
2,4,12,3,1.0,8,8,1929.59,1078522,trial_4_12_3
2,4,12,4,1.0,5,5,529.59,1079052,trial_4_12_4
2,4,12,5,,7,4,1305.4,1080358,trial_4_12_5
2,4,12,6,1.0,2,2,1243.63,1081602,trial_4_12_6
2,4,12,7,,1,6,289.315,1081892,trial_4_12_7
2,4,12,8,,3,9,3173.77,1085066,trial_4_12_8
2,4,12,9,,9,1,2845.31,1087912,trial_4_12_9
2,4,13,1,1.0,4,4,1136.52,1099558,trial_4_13_1
2,4,13,2,1.0,1,1,552.76,1100112,trial_4_13_2
2,4,13,3,1.0,7,7,1013.53,1101126,trial_4_13_3
2,4,13,4,1.0,5,5,707.495,1101834,trial_4_13_4
2,4,13,5,,9,3,1447.65,1103282,trial_4_13_5
2,4,13,6,,7,6,537.8,1103820,trial_4_13_6
2,4,13,7,,8,2,517.04,1104338,trial_4_13_7
2,4,13,8,,3,9,528.585,1104867,trial_4_13_8
2,4,13,9,,5,8,1999.55,1106867,trial_4_13_9
2,4,14,1,1.0,3,3,1400.66,1117776,trial_4_14_1
2,4,14,2,1.0,8,8,856.75,1118634,trial_4_14_2
2,4,14,3,1.0,6,6,559.42,1119194,trial_4_14_3
2,4,14,4,1.0,2,2,1116.43,1120311,trial_4_14_4
2,4,14,5,,7,4,1005.44,1121317,trial_4_14_5
2,4,14,6,,6,1,1175.52,1122493,trial_4_14_6
2,4,14,7,,5,9,593.495,1123087,trial_4_14_7
2,4,14,8,,1,7,703.51,1123791,trial_4_14_8
3,1,1,1,1.0,5,5,587.0,12010,trial_1_1_1
3,1,1,2,1.0,3,3,159.0,12170,trial_1_1_2
3,1,1,3,1.0,1,1,61.0,12233,trial_1_1_3
3,1,2,1,1.0,4,4,2136.0,19948,trial_1_2_1
3,1,2,2,1.0,8,8,307.0,20256,trial_1_2_2
3,1,2,3,1.0,2,2,628.0,20884,trial_1_2_3
3,1,2,4,1.0,9,9,170.0,21057,trial_1_2_4
3,1,3,1,1.0,5,5,1725.0,29376,trial_1_3_1
3,1,3,2,1.0,8,8,346.0,29723,trial_1_3_2
3,1,3,3,1.0,1,1,727.0,30452,trial_1_3_3
3,1,3,4,1.0,7,7,373.0,30826,trial_1_3_4
3,1,3,5,1.0,2,2,214.0,31041,trial_1_3_5
3,1,4,1,1.0,5,5,3234.0,41905,trial_1_4_1
3,1,4,2,1.0,6,6,81.0,41987,trial_1_4_2
3,1,4,3,1.0,4,4,889.0,42876,trial_1_4_3
3,1,4,4,1.0,3,3,320.0,43196,trial_1_4_4
3,1,4,5,1.0,2,2,378.0,43575,trial_1_4_5
3,1,4,6,1.0,9,9,292.0,43868,trial_1_4_6
3,1,5,1,,1,2,58777.0,111278,trial_1_5_1
3,1,5,2,,2,8,105.0,111386,trial_1_5_2
3,1,5,3,,3,9,54.0,111442,trial_1_5_3
3,1,5,4,,4,7,65.0,111509,trial_1_5_4
3,1,5,5,,5,4,61.0,111572,trial_1_5_5
3,1,5,6,,6,5,55.0,111629,trial_1_5_6
3,1,5,7,,7,3,71.0,111701,trial_1_5_7
3,1,6,1,1.0,1,1,1157.0,121469,trial_1_6_1
3,1,6,2,1.0,8,8,424.0,121893,trial_1_6_2
3,1,6,3,1.0,6,6,326.0,122220,trial_1_6_3
3,1,6,4,1.0,7,7,311.0,122533,trial_1_6_4
3,1,6,5,1.0,9,9,387.0,122922,trial_1_6_5
3,1,6,6,1.0,3,3,517.0,123440,trial_1_6_6
3,1,6,7,1.0,4,4,188.0,123630,trial_1_6_7
3,1,7,1,1.0,5,5,1548.0,132789,trial_1_7_1
3,1,7,2,1.0,2,2,346.0,133137,trial_1_7_2
3,1,7,3,1.0,3,3,370.0,133508,trial_1_7_3
3,1,7,4,1.0,9,9,354.0,133863,trial_1_7_4
3,1,7,5,1.0,4,4,509.0,134372,trial_1_7_5
3,1,7,6,1.0,1,1,112.0,134485,trial_1_7_6
3,1,8,1,1.0,5,5,1650.0,144760,trial_1_8_1
3,1,8,2,1.0,3,3,399.0,145159,trial_1_8_2
3,1,8,3,1.0,9,9,355.0,145516,trial_1_8_3
3,1,8,4,,4,2,370.0,145886,trial_1_8_4
3,1,8,5,,6,4,331.0,146217,trial_1_8_5
3,1,8,6,,7,6,334.0,146553,trial_1_8_6
3,1,8,7,,2,7,262.0,146815,trial_1_8_7
3,1,9,1,1.0,3,3,2083.0,157524,trial_1_9_1
3,1,9,2,1.0,7,7,543.0,158067,trial_1_9_2
3,1,9,3,1.0,9,9,488.0,158557,trial_1_9_3
3,1,9,4,1.0,4,4,473.0,159032,trial_1_9_4
3,1,9,5,1.0,1,1,453.0,159485,trial_1_9_5
3,1,9,6,1.0,8,8,538.0,160025,trial_1_9_6
3,1,9,7,1.0,2,2,446.0,160472,trial_1_9_7
3,1,10,1,1.0,7,7,1643.0,171762,trial_1_10_1
3,1,10,2,1.0,8,8,392.0,172155,trial_1_10_2
3,1,10,3,,3,4,425.0,172580,trial_1_10_3
3,1,10,4,,4,3,399.0,172980,trial_1_10_4
3,1,10,5,,5,1,722.0,173702,trial_1_10_5
3,1,10,6,,1,5,644.0,174347,trial_1_10_6
3,1,10,7,1.0,9,9,491.0,174839,trial_1_10_7
3,1,10,8,1.0,6,6,619.0,175459,trial_1_10_8
3,1,11,1,1.0,8,8,1627.0,186745,trial_1_11_1
3,1,11,2,1.0,4,4,436.0,187184,trial_1_11_2
3,1,11,3,1.0,6,6,401.0,187585,trial_1_11_3
3,1,11,4,1.0,2,2,490.0,188076,trial_1_11_4
3,1,11,5,1.0,5,5,753.0,188830,trial_1_11_5
3,1,11,6,1.0,7,7,240.0,189071,trial_1_11_6
3,1,11,7,1.0,9,9,420.0,189492,trial_1_11_7
3,1,11,8,1.0,1,1,308.0,189802,trial_1_11_8
3,1,12,1,1.0,4,4,1561.0,202019,trial_1_12_1
3,1,12,2,1.0,2,2,313.0,202333,trial_1_12_2
3,1,12,3,,8,6,378.0,202711,trial_1_12_3
3,1,12,4,,9,1,1104.0,203817,trial_1_12_4
3,1,12,5,,6,9,351.0,204168,trial_1_12_5
3,1,12,6,1.0,3,3,1928.0,206098,trial_1_12_6
3,1,12,7,,7,8,287.0,206387,trial_1_12_7
3,1,12,8,1.0,5,5,968.0,207355,trial_1_12_8
3,1,12,9,,1,7,1123.0,208479,trial_1_12_9
3,1,13,1,1.0,8,8,4887.0,223985,trial_1_13_1
3,1,13,2,1.0,2,2,504.0,224491,trial_1_13_2
3,1,13,3,1.0,4,4,475.0,224967,trial_1_13_3
3,1,13,4,,5,1,473.0,225441,trial_1_13_4
3,1,13,5,1.0,3,3,726.0,226168,trial_1_13_5
3,1,13,6,,1,5,533.0,226702,trial_1_13_6
3,1,13,7,1.0,9,9,411.0,227114,trial_1_13_7
3,1,13,8,1.0,6,6,326.0,227440,trial_1_13_8
3,1,13,9,1.0,7,7,311.0,227752,trial_1_13_9
3,1,14,1,1.0,3,3,1198.0,238595,trial_1_14_1
3,1,14,2,1.0,6,6,411.0,239009,trial_1_14_2
3,1,14,3,1.0,7,7,392.0,239402,trial_1_14_3
3,1,14,4,1.0,5,5,366.0,239768,trial_1_14_4
3,1,14,5,1.0,8,8,469.0,240238,trial_1_14_5
3,1,14,6,1.0,2,2,455.0,240694,trial_1_14_6
3,1,14,7,1.0,4,4,543.0,241238,trial_1_14_7
3,1,14,8,1.0,9,9,338.0,241577,trial_1_14_8
3,2,1,1,1.0,7,7,405.0,278413,trial_2_1_1
3,2,1,2,1.0,9,9,446.0,278859,trial_2_1_2
3,2,1,3,1.0,5,5,305.0,279164,trial_2_1_3
3,2,2,1,1.0,9,9,850.0,285570,trial_2_2_1
3,2,2,2,1.0,4,4,830.0,286401,trial_2_2_2
3,2,2,3,1.0,7,7,435.0,286837,trial_2_2_3
3,2,2,4,1.0,6,6,114.0,286952,trial_2_2_4
3,2,3,1,1.0,7,7,605.0,294142,trial_2_3_1
3,2,3,2,1.0,9,9,600.0,294743,trial_2_3_2
3,2,3,3,1.0,3,3,578.0,295322,trial_2_3_3
3,2,3,4,1.0,6,6,468.0,295790,trial_2_3_4
3,2,3,5,1.0,5,5,431.0,296224,trial_2_3_5
3,2,4,1,1.0,8,8,1674.0,305483,trial_2_4_1
3,2,4,2,1.0,7,7,428.0,305913,trial_2_4_2
3,2,4,3,1.0,5,5,633.0,306547,trial_2_4_3
3,2,4,4,1.0,2,2,451.0,306999,trial_2_4_4
3,2,4,5,1.0,1,1,562.0,307561,trial_2_4_5
3,2,4,6,1.0,6,6,396.0,307958,trial_2_4_6
3,2,5,1,1.0,3,3,1776.0,318364,trial_2_5_1
3,2,5,2,1.0,2,2,369.0,318734,trial_2_5_2
3,2,5,3,,5,7,501.0,319236,trial_2_5_3
3,2,5,4,1.0,4,4,1015.0,320253,trial_2_5_4
3,2,5,5,1.0,1,1,439.0,320694,trial_2_5_5
3,2,5,6,,7,5,409.0,321104,trial_2_5_6
3,2,5,7,1.0,8,8,9683.0,330788,trial_2_5_7
3,2,6,1,1.0,6,6,1860.0,341258,trial_2_6_1
3,2,6,2,1.0,2,2,543.0,341802,trial_2_6_2
3,2,6,3,1.0,9,9,372.0,342174,trial_2_6_3
3,2,6,4,1.0,7,7,313.0,342488,trial_2_6_4
3,2,6,5,1.0,5,5,316.0,342804,trial_2_6_5
3,2,6,6,1.0,4,4,338.0,343143,trial_2_6_6
3,2,6,7,1.0,3,3,390.0,343533,trial_2_6_7
3,2,7,1,1.0,1,1,1412.0,352560,trial_2_7_1
3,2,7,2,1.0,9,9,401.0,352962,trial_2_7_2
3,2,7,3,1.0,8,8,289.0,353251,trial_2_7_3
3,2,7,4,1.0,7,7,357.0,353608,trial_2_7_4
3,2,7,5,1.0,4,4,538.0,354147,trial_2_7_5
3,2,7,6,1.0,5,5,500.0,354648,trial_2_7_6
3,2,8,1,1.0,7,7,2141.0,365409,trial_2_8_1
3,2,8,2,1.0,4,4,392.0,365803,trial_2_8_2
3,2,8,3,,2,5,352.0,366155,trial_2_8_3
3,2,8,4,,6,2,469.0,366624,trial_2_8_4
3,2,8,5,,9,6,1766.0,368390,trial_2_8_5
3,2,8,6,,8,9,261.0,368652,trial_2_8_6
3,2,8,7,,4,8,1657.0,370311,trial_2_8_7
3,2,9,1,1.0,7,7,1626.0,380553,trial_2_9_1
3,2,9,2,1.0,1,1,529.0,381083,trial_2_9_2
3,2,9,3,1.0,4,4,396.0,381479,trial_2_9_3
3,2,9,4,1.0,5,5,442.0,381922,trial_2_9_4
3,2,9,5,1.0,3,3,882.0,382806,trial_2_9_5
3,2,9,6,1.0,8,8,503.0,383309,trial_2_9_6
3,2,9,7,1.0,6,6,284.0,383593,trial_2_9_7
3,2,10,1,1.0,9,9,1897.0,395113,trial_2_10_1
3,2,10,2,1.0,6,6,411.0,395527,trial_2_10_2
3,2,10,3,1.0,5,5,367.0,395894,trial_2_10_3
3,2,10,4,1.0,3,3,452.0,396347,trial_2_10_4
3,2,10,5,,8,2,977.0,397325,trial_2_10_5
3,2,10,6,,6,8,436.0,397762,trial_2_10_6
3,2,10,7,,1,7,388.0,398150,trial_2_10_7
3,2,10,8,,7,1,262.0,398412,trial_2_10_8
3,2,11,1,,9,1,1305.0,409372,trial_2_11_1
3,2,11,2,,6,7,559.0,409931,trial_2_11_2
3,2,11,3,1.0,5,5,513.0,410445,trial_2_11_3
3,2,11,4,,1,6,642.0,411088,trial_2_11_4
3,2,11,5,,3,2,327.0,411415,trial_2_11_5
3,2,11,6,,4,3,274.0,411690,trial_2_11_6
3,2,11,7,,6,4,589.0,412280,trial_2_11_7
3,2,11,8,,7,8,274.0,412554,trial_2_11_8
3,2,12,1,1.0,3,3,1702.0,424898,trial_2_12_1
3,2,12,2,,6,7,244.0,425143,trial_2_12_2
3,2,12,3,1.0,8,8,1150.0,426292,trial_2_12_3
3,2,12,4,,4,6,385.0,426678,trial_2_12_4
3,2,12,5,,2,4,648.0,427327,trial_2_12_5
3,2,12,6,,5,2,298.0,427626,trial_2_12_6
3,2,12,7,,1,5,252.0,427879,trial_2_12_7
3,2,12,8,,9,1,290.0,428169,trial_2_12_8
3,2,12,9,,5,9,1816.0,429985,trial_2_12_9
3,2,13,1,1.0,4,4,1571.0,442223,trial_2_13_1
3,2,13,2,1.0,3,3,154.0,442377,trial_2_13_2
3,2,13,3,1.0,9,9,848.0,443226,trial_2_13_3
3,2,13,4,,5,7,385.0,443613,trial_2_13_4
3,2,13,5,1.0,1,1,544.0,444160,trial_2_13_5
3,2,13,6,,7,5,787.0,444947,trial_2_13_6
3,2,13,7,1.0,2,2,424.0,445371,trial_2_13_7
3,2,13,8,1.0,8,8,382.0,445754,trial_2_13_8
3,2,13,9,1.0,6,6,289.0,446043,trial_2_13_9
3,2,14,1,1.0,5,5,1485.0,457133,trial_2_14_1
3,2,14,2,1.0,6,6,128.0,457263,trial_2_14_2
3,2,14,3,1.0,8,8,628.0,457891,trial_2_14_3
3,2,14,4,1.0,2,2,439.0,458333,trial_2_14_4
3,2,14,5,1.0,3,3,486.0,458819,trial_2_14_5
3,2,14,6,1.0,7,7,482.0,459303,trial_2_14_6
3,2,14,7,1.0,9,9,393.0,459696,trial_2_14_7
3,2,14,8,1.0,1,1,274.0,459971,trial_2_14_8
3,3,1,1,,9,2,77079.0,564494,trial_3_1_1
3,3,1,2,,8,3,159.0,564654,trial_3_1_2
3,3,1,3,,7,1,152.0,564808,trial_3_1_3
3,3,2,1,1.0,1,1,706.0,571091,trial_3_2_1
3,3,2,2,,4,3,277.0,571368,trial_3_2_2
3,3,2,3,1.0,6,6,254.0,571623,trial_3_2_3
3,3,2,4,1.0,8,8,173.0,571797,trial_3_2_4
3,3,3,1,1.0,3,3,1397.0,579802,trial_3_3_1
3,3,3,2,1.0,5,5,310.0,580113,trial_3_3_2
3,3,3,3,1.0,6,6,364.0,580479,trial_3_3_3
3,3,3,4,1.0,2,2,310.0,580789,trial_3_3_4
3,3,3,5,1.0,8,8,351.0,581141,trial_3_3_5
3,3,4,1,1.0,8,8,1160.0,589886,trial_3_4_1
3,3,4,2,1.0,6,6,156.0,590042,trial_3_4_2
3,3,4,3,1.0,3,3,582.0,590626,trial_3_4_3
3,3,4,4,1.0,5,5,291.0,590918,trial_3_4_4
3,3,4,5,1.0,4,4,270.0,591189,trial_3_4_5
3,3,4,6,1.0,1,1,259.0,591449,trial_3_4_6
3,3,5,1,1.0,9,9,1314.0,601388,trial_3_5_1
3,3,5,2,1.0,8,8,266.0,601655,trial_3_5_2
3,3,5,3,1.0,7,7,302.0,601959,trial_3_5_3
3,3,5,4,1.0,2,2,434.0,602394,trial_3_5_4
3,3,5,5,1.0,6,6,419.0,602813,trial_3_5_5
3,3,5,6,1.0,1,1,361.0,603175,trial_3_5_6
3,3,5,7,1.0,5,5,306.0,603483,trial_3_5_7
3,3,6,1,1.0,4,4,1107.0,613240,trial_3_6_1
3,3,6,2,1.0,1,1,110.0,613353,trial_3_6_2
3,3,6,3,1.0,7,7,734.0,614089,trial_3_6_3
3,3,6,4,1.0,6,6,535.0,614626,trial_3_6_4
3,3,6,5,1.0,2,2,528.0,615154,trial_3_6_5
3,3,6,6,1.0,9,9,616.0,615771,trial_3_6_6
3,3,6,7,1.0,3,3,334.0,616105,trial_3_6_7
3,3,7,1,1.0,2,2,980.0,624684,trial_3_7_1
3,3,7,2,1.0,1,1,248.0,624933,trial_3_7_2
3,3,7,3,1.0,6,6,283.0,625216,trial_3_7_3
3,3,7,4,1.0,3,3,349.0,625566,trial_3_7_4
3,3,7,5,1.0,7,7,407.0,625973,trial_3_7_5
3,3,7,6,1.0,8,8,214.0,626189,trial_3_7_6
3,3,8,1,,3,5,3760.0,638584,trial_3_8_1
3,3,8,2,,5,3,294.0,638879,trial_3_8_2
3,3,8,3,1.0,1,1,302.0,639181,trial_3_8_3
3,3,8,4,1.0,6,6,727.0,639910,trial_3_8_4
3,3,8,5,1.0,2,2,418.0,640330,trial_3_8_5
3,3,8,6,1.0,7,7,379.0,640710,trial_3_8_6
3,3,8,7,1.0,8,8,324.0,641035,trial_3_8_7
3,3,9,1,1.0,6,6,1973.0,651617,trial_3_9_1
3,3,9,2,1.0,9,9,239.0,651858,trial_3_9_2
3,3,9,3,1.0,2,2,774.0,652633,trial_3_9_3
3,3,9,4,1.0,5,5,380.0,653013,trial_3_9_4
3,3,9,5,1.0,8,8,493.0,653508,trial_3_9_5
3,3,9,6,1.0,7,7,420.0,653928,trial_3_9_6
3,3,9,7,1.0,3,3,395.0,654323,trial_3_9_7
3,3,10,1,1.0,8,8,2410.0,666404,trial_3_10_1
3,3,10,2,1.0,9,9,235.0,666640,trial_3_10_2
3,3,10,3,1.0,2,2,915.0,667555,trial_3_10_3
3,3,10,4,1.0,5,5,374.0,667930,trial_3_10_4
3,3,10,5,1.0,6,6,708.0,668638,trial_3_10_5
3,3,10,6,1.0,3,3,573.0,669213,trial_3_10_6
3,3,10,7,1.0,1,1,432.0,669646,trial_3_10_7
3,3,10,8,,5,7,338.0,669985,trial_3_10_8
3,3,11,1,1.0,8,8,1223.0,680806,trial_3_11_1
3,3,11,2,1.0,5,5,591.0,681397,trial_3_11_2
3,3,11,3,1.0,4,4,878.0,682276,trial_3_11_3
3,3,11,4,1.0,2,2,753.0,683030,trial_3_11_4
3,3,11,5,1.0,6,6,667.0,683698,trial_3_11_5
3,3,11,6,1.0,9,9,571.0,684271,trial_3_11_6
3,3,11,7,1.0,1,1,373.0,684644,trial_3_11_7
3,3,11,8,1.0,3,3,304.0,684949,trial_3_11_8
3,3,12,1,1.0,8,8,3783.0,699366,trial_3_12_1
3,3,12,2,1.0,1,1,414.0,699781,trial_3_12_2
3,3,12,3,1.0,3,3,1071.0,700853,trial_3_12_3
3,3,12,4,1.0,9,9,488.0,701343,trial_3_12_4
3,3,12,5,,7,5,803.0,702148,trial_3_12_5
3,3,12,6,,5,7,509.0,702659,trial_3_12_6
3,3,12,7,1.0,6,6,699.0,703359,trial_3_12_7
3,3,12,8,1.0,4,4,555.0,703915,trial_3_12_8
3,3,12,9,1.0,2,2,596.0,704512,trial_3_12_9
3,3,13,1,1.0,1,1,1700.0,716873,trial_3_13_1
3,3,13,2,1.0,2,2,429.0,717302,trial_3_13_2
3,3,13,3,1.0,8,8,1112.0,718415,trial_3_13_3
3,3,13,4,1.0,7,7,651.0,719067,trial_3_13_4
3,3,13,5,1.0,3,3,673.0,719742,trial_3_13_5
3,3,13,6,1.0,9,9,684.0,720426,trial_3_13_6
3,3,13,7,,6,5,3372.0,723798,trial_3_13_7
3,3,13,8,,5,6,269.0,724068,trial_3_13_8
3,3,13,9,1.0,4,4,293.0,724362,trial_3_13_9
3,3,14,1,,5,8,5790.0,739803,trial_3_14_1
3,3,14,2,,8,4,349.0,740153,trial_3_14_2
3,3,14,3,1.0,7,7,958.0,741113,trial_3_14_3
3,3,14,4,1.0,6,6,412.0,741526,trial_3_14_4
3,3,14,5,1.0,1,1,502.0,742028,trial_3_14_5
3,3,14,6,1.0,3,3,414.0,742444,trial_3_14_6
3,3,14,7,1.0,2,2,497.0,742941,trial_3_14_7
3,3,14,8,1.0,9,9,319.0,743261,trial_3_14_8
3,4,1,1,,1,8,25333.0,802507,trial_4_1_1
3,4,1,2,,2,4,100.0,802609,trial_4_1_2
3,4,1,3,,3,5,331.0,802941,trial_4_1_3
3,4,2,1,1.0,4,4,1020.0,809543,trial_4_2_1
3,4,2,2,1.0,1,1,344.0,809887,trial_4_2_2
3,4,2,3,1.0,3,3,213.0,810103,trial_4_2_3
3,4,2,4,1.0,9,9,238.0,810341,trial_4_2_4
3,4,3,1,1.0,6,6,1366.0,818277,trial_4_3_1
3,4,3,2,1.0,4,4,363.0,818641,trial_4_3_2
3,4,3,3,1.0,7,7,445.0,819087,trial_4_3_3
3,4,3,4,1.0,3,3,402.0,819490,trial_4_3_4
3,4,3,5,1.0,2,2,293.0,819785,trial_4_3_5
3,4,4,1,1.0,2,2,1849.0,829261,trial_4_4_1
3,4,4,2,,7,5,375.0,829636,trial_4_4_2
3,4,4,3,1.0,8,8,376.0,830014,trial_4_4_3
3,4,4,4,,5,7,559.0,830574,trial_4_4_4
3,4,4,5,1.0,1,1,292.0,830867,trial_4_4_5
3,4,4,6,1.0,9,9,296.0,831164,trial_4_4_6
3,4,5,1,1.0,5,5,1467.0,841269,trial_4_5_1
3,4,5,2,1.0,6,6,283.0,841553,trial_4_5_2
3,4,5,3,,7,9,477.0,842031,trial_4_5_3
3,4,5,4,,9,7,394.0,842428,trial_4_5_4
3,4,5,5,,1,4,1670.0,844098,trial_4_5_5
3,4,5,6,,2,1,282.0,844380,trial_4_5_6
3,4,5,7,,8,2,493.0,844875,trial_4_5_7
3,4,6,1,1.0,9,9,1337.0,854838,trial_4_6_1
3,4,6,2,1.0,6,6,451.0,855290,trial_4_6_2
3,4,6,3,,5,7,379.0,855669,trial_4_6_3
3,4,6,4,1.0,4,4,466.0,856136,trial_4_6_4
3,4,6,5,1.0,1,1,397.0,856534,trial_4_6_5
3,4,6,6,,7,5,1115.0,857651,trial_4_6_6
3,4,6,7,1.0,8,8,324.0,857976,trial_4_6_7
3,4,7,1,1.0,2,2,1524.0,867105,trial_4_7_1
3,4,7,2,1.0,5,5,349.0,867454,trial_4_7_2
3,4,7,3,1.0,9,9,528.0,867983,trial_4_7_3
3,4,7,4,1.0,4,4,472.0,868455,trial_4_7_4
3,4,7,5,1.0,8,8,483.0,868938,trial_4_7_5
3,4,7,6,1.0,3,3,410.0,869349,trial_4_7_6
3,4,8,1,1.0,4,4,1460.0,879442,trial_4_8_1
3,4,8,2,1.0,9,9,363.0,879807,trial_4_8_2
3,4,8,3,1.0,2,2,434.0,880242,trial_4_8_3
3,4,8,4,1.0,3,3,388.0,880631,trial_4_8_4
3,4,8,5,1.0,7,7,492.0,881123,trial_4_8_5
3,4,8,6,1.0,8,8,274.0,881399,trial_4_8_6
3,4,8,7,1.0,1,1,280.0,881680,trial_4_8_7
3,4,9,1,1.0,2,2,1060.0,891360,trial_4_9_1
3,4,9,2,1.0,9,9,395.0,891756,trial_4_9_2
3,4,9,3,1.0,8,8,303.0,892060,trial_4_9_3
3,4,9,4,1.0,7,7,375.0,892437,trial_4_9_4
3,4,9,5,1.0,4,4,411.0,892850,trial_4_9_5
3,4,9,6,1.0,5,5,391.0,893241,trial_4_9_6
3,4,9,7,1.0,3,3,382.0,893624,trial_4_9_7
3,4,10,1,1.0,8,8,1640.0,904890,trial_4_10_1
3,4,10,2,1.0,7,7,332.0,905223,trial_4_10_2
3,4,10,3,,2,3,550.0,905774,trial_4_10_3
3,4,10,4,,3,2,380.0,906156,trial_4_10_4
3,4,10,5,1.0,9,9,474.0,906632,trial_4_10_5
3,4,10,6,1.0,6,6,676.0,907309,trial_4_10_6
3,4,10,7,1.0,5,5,598.0,907909,trial_4_10_7
3,4,10,8,1.0,1,1,315.0,908224,trial_4_10_8
3,4,11,1,1.0,3,3,1662.0,919522,trial_4_11_1
3,4,11,2,,5,1,377.0,919900,trial_4_11_2
3,4,11,3,1.0,4,4,342.0,920243,trial_4_11_3
3,4,11,4,,1,5,744.0,920988,trial_4_11_4
3,4,11,5,1.0,8,8,549.0,921538,trial_4_11_5
3,4,11,6,,7,2,1249.0,922788,trial_4_11_6
3,4,11,7,,6,7,457.0,923247,trial_4_11_7
3,4,11,8,,2,6,556.0,923804,trial_4_11_8
3,4,12,1,1.0,1,1,1412.0,935862,trial_4_12_1
3,4,12,2,1.0,9,9,264.0,936127,trial_4_12_2
3,4,12,3,1.0,7,7,507.0,936636,trial_4_12_3
3,4,12,4,1.0,4,4,513.0,937150,trial_4_12_4
3,4,12,5,,5,6,877.0,938028,trial_4_12_5
3,4,12,6,,6,5,1090.0,939118,trial_4_12_6
3,4,12,7,,7,8,1749.0,940869,trial_4_12_7
3,4,12,8,,8,2,251.0,941122,trial_4_12_8
3,4,12,9,,9,3,849.0,941972,trial_4_12_9
3,4,13,1,,2,3,870.0,953501,trial_4_13_1
3,4,13,2,,3,8,81.0,953583,trial_4_13_2
3,4,13,3,,4,9,52.0,953636,trial_4_13_3
3,4,13,4,,5,2,44.0,953682,trial_4_13_4
3,4,13,5,,6,7,40.0,953724,trial_4_13_5
3,4,13,6,,7,1,42.0,953766,trial_4_13_6
3,4,13,7,,8,5,42.0,953809,trial_4_13_7
3,4,13,8,,9,4,42.0,953854,trial_4_13_8
3,4,13,9,,9,6,1080.0,954935,trial_4_13_9
3,4,14,1,,9,3,1937.0,966536,trial_4_14_1
3,4,14,2,,8,9,73.0,966612,trial_4_14_2
3,4,14,3,,7,1,37.0,966649,trial_4_14_3
3,4,14,4,,6,8,27.0,966677,trial_4_14_4
3,4,14,5,,5,4,26.0,966702,trial_4_14_5
3,4,14,6,,4,6,26.0,966728,trial_4_14_6
3,4,14,7,,3,7,25.0,966754,trial_4_14_7
3,4,14,8,,2,5,26.0,966781,trial_4_14_8
